Folder: xdiProc (part 7)

File: MEX1_29704_processed.xdi
# XDI/1.0
# Mono.d_spacing: 3.13897
# Reference.Element: In
# ROI.start_bin: nan
# ROI.end_bin: nan
# Element.symbol: None
# Element.edge: None
# Processing.version: spec_processing_library v0.3.5
# Column.1: energy
# Column.2: bragg
# Column.3: count_time seconds
# Column.4: i0
# Column.5: i1
# Column.6: i2
# Describe.Column.1: energy - MEX1ES01ZEB01:CALC_ENERGY_EV
# Describe.Column.2: bragg - MEX1ES01ZEB01:BRAGG_WITH_OFFSET
# Describe.Column.3: count_time - MEX1ES01ZEB01:GATE_TIME_SET
# Describe.Column.4: i0 - MEX1ES01DAQ01:ch1:S:MeanValue_RBV
# Describe.Column.5: i1 - MEX1ES01DAQ01:ch2:S:MeanValue_RBV
# Describe.Column.6: i2 - MEX1ES01DAQ01:ch3:S:MeanValue_RBV
# Samples: [417, 417, 417, 417, 417, 417]
# ///
# In foil
#
# xdi from default mda2xdi preset for mex1.
#--------
#  energy   bragg   count_time   i0   i1   i2
 3529.93  34.0198  1  1.6423  0.579937  3.03836
 3559.93  33.6945  1.0  1.73011  0.584941  2.92392
 3589.93  33.3758  1  1.78583  0.592715  2.83158
 3619.93  33.0636  1.0  1.76914  0.59475  2.74362
 3649.93  32.7575  1  1.84252  0.609572  2.65607
 3679.93  32.4575  1.0  1.91126  0.628259  2.58207
 3709.92  32.1633  1  1.99361  0.657519  2.54985
 3710.67  32.156  1.0  1.99497  0.658325  2.54944
 3711.42  32.1488  1  1.99624  0.658827  2.54849
 3712.17  32.1415  1.0  2.00208  0.660817  2.55134
 3712.92  32.1342  1  2.00322  0.661391  2.5509
 3713.67  32.127  1.0  2.00466  0.662336  2.5509
 3714.42  32.1197  1  2.00608  0.663302  2.54865
 3715.17  32.1124  1.0  2.00695  0.66253  2.5414
 3715.92  32.1052  1  2.00857  0.664321  2.54547
 3716.67  32.0979  1.0  2.0095  0.663831  2.54034
 3717.42  32.0907  1  2.01086  0.664865  2.54166
 3718.17  32.0834  1.0  2.01214  0.665304  2.53972
 3718.92  32.0762  1  2.01357  0.666123  2.5395
 3719.67  32.0689  1.0  2.015  0.666823  2.53937
 3720.42  32.0617  1  2.01644  0.667519  2.53764
 3721.17  32.0545  1.0  2.01788  0.668168  2.53637
 3721.92  32.0472  1  2.01947  0.668917  2.53599
 3722.67  32.04  1.0  2.02089  0.669658  2.53501
 3723.42  32.0328  1  2.02249  0.670313  2.53377
 3724.17  32.0256  1.0  2.02404  0.670904  2.5328
 3724.92  32.0184  1  2.02546  0.671676  2.53174
 3725.67  32.0112  1.0  2.02723  0.672855  2.53368
 3726.42  32.0039  1  2.02846  0.672437  2.52362
 3727.17  31.9967  1.0  2.03013  0.673403  2.52555
 3727.92  31.9895  1  2.03171  0.674109  2.52473
 3728.67  31.9823  1.0  2.03341  0.674881  2.52288
 3729.42  31.9751  1  2.03505  0.67554  2.52174
 3730.17  31.9679  1.0  2.03687  0.676277  2.52022
 3730.92  31.9608  1  2.03869  0.677071  2.51861
 3731.67  31.9536  1.0  2.04054  0.677693  2.51624
 3732.42  31.9464  1  2.04232  0.678206  2.51222
 3733.17  31.9392  1.0  2.04449  0.679476  2.5141
 3733.92  31.932  1  2.04633  0.680048  2.51176
 3734.67  31.9249  1.0  2.04775  0.677883  2.48912
 3735.42  31.9177  1  2.05059  0.682261  2.5131
 3736.17  31.9105  1.0  2.05262  0.682783  2.50934
 3736.92  31.9034  1  2.05453  0.682802  2.50266
 3737.67  31.8962  1.0  2.05679  0.684523  2.50722
 3738.42  31.8891  1  2.059  0.685297  2.50579
 3739.17  31.8819  1.0  2.06116  0.686131  2.50373
 3739.92  31.8748  1  2.06316  0.686946  2.50287
 3740.67  31.8676  1.0  2.06533  0.687719  2.5013
 3741.42  31.8605  1  2.0675  0.68855  2.50006
 3742.17  31.8534  1.0  2.06951  0.689357  2.49845
 3742.92  31.8462  1  2.07162  0.690175  2.49704
 3743.67  31.8391  1.0  2.07375  0.691082  2.49609
 3744.42  31.832  1  2.07576  0.691852  2.49452
 3745.17  31.8249  1.0  2.07775  0.692756  2.49343
 3745.92  31.8177  1  2.07977  0.693521  2.492
 3746.67  31.8106  1.0  2.08626  0.695622  2.49408
 3747.42  31.8035  1  2.08807  0.696435  2.49342
 3748.17  31.7964  1.0  2.0899  0.697294  2.49262
 3748.92  31.7893  1  2.09172  0.697996  2.491
 3749.67  31.7822  1.0  2.09344  0.698793  2.49002
 3750.42  31.7751  1  2.0951  0.699594  2.48837
 3751.17  31.768  1.0  2.09676  0.700353  2.48774
 3751.92  31.7609  1  2.09838  0.701024  2.48508
 3752.67  31.7538  1.0  2.09951  0.699378  2.46773
 3753.42  31.7467  1  2.1018  0.702879  2.48475
 3754.17  31.7396  1.0  2.10328  0.703462  2.48329
 3754.92  31.7326  1  2.1049  0.704192  2.48138
 3755.67  31.7255  1.0  2.10644  0.704946  2.4798
 3756.42  31.7184  1  2.10794  0.705705  2.47777
 3757.17  31.7114  1.0  2.1091  0.704914  2.46566
 3757.92  31.7043  1  2.11068  0.705977  2.46661
 3758.67  31.6972  1.0  2.11246  0.70827  2.47667
 3759.42  31.6902  1  2.11386  0.708931  2.47471
 3760.17  31.6831  1.0  2.11521  0.709649  2.47301
 3760.92  31.6761  1  2.11658  0.710301  2.47157
 3761.67  31.669  1.0  2.11788  0.710896  2.4695
 3762.42  31.662  1  2.11904  0.710618  2.46012
 3763.17  31.6549  1.0  2.12063  0.712764  2.46856
 3763.92  31.6479  1  2.12205  0.713525  2.46672
 3764.67  31.6409  1.0  2.12341  0.714186  2.46587
 3765.42  31.6338  1  2.12478  0.714958  2.46426
 3766.17  31.6268  1.0  2.12624  0.715734  2.46322
 3766.92  31.6198  1  2.12762  0.716526  2.46203
 3767.67  31.6128  1.0  2.12928  0.717296  2.46092
 3768.42  31.6057  1  2.13066  0.718058  2.45914
 3769.17  31.5987  1.0  2.13223  0.718769  2.45788
 3769.92  31.5917  1  2.1337  0.719588  2.45625
 3770.67  31.5847  1.0  2.1352  0.720348  2.45482
 3771.42  31.5777  1  2.1369  0.721189  2.45324
 3772.17  31.5707  1.0  2.13852  0.721977  2.45181
 3772.92  31.5637  1  2.14019  0.722759  2.45015
 3773.67  31.5567  1.0  2.14191  0.723533  2.44932
 3774.42  31.5497  1  2.14361  0.724339  2.44725
 3775.17  31.5427  1.0  2.14534  0.72526  2.44559
 3775.92  31.5357  1  2.14716  0.726017  2.44426
 3776.67  31.5288  1.0  2.14892  0.726726  2.44095
 3777.42  31.5218  1  2.15085  0.727922  2.44195
 3778.17  31.5148  1.0  2.15209  0.725783  2.41948
 3778.92  31.5078  1  2.15715  0.73017  2.43992
 3779.67  31.5009  1.0  2.16122  0.732203  2.44363
 3799.92  31.3139  1  2.21785  0.757694  2.40268
 3829.92  31.0413  1.0  2.28752  0.796109  2.34393
 3859.92  30.7737  1  2.35441  0.838614  2.29208
 3889.91  30.5109  1.0  2.43236  0.886307  2.22909
 3919.91  30.2529  1  2.50567  0.936251  2.1578
 3949.91  29.9994  1.0  2.57274  0.98829  2.0756
 3979.91  29.7504  1  2.64181  1.04313  1.97801
 4009.91  29.5057  1.0  2.7144  1.10245  1.87238
 4039.91  29.2652  1  2.77394  1.16486  1.78666
 4069.91  29.0288  1.0  2.84238  1.23211  1.68129
 4099.9  28.7964  1  2.90294  1.3005  1.56939
 4129.9  28.5679  1.0  2.96291  1.374  1.46338
 4159.9  28.3432  1  3.02524  1.4539  1.36427
 4189.9  28.1222  1.0  3.08758  1.54003  1.27849
 4219.9  27.9047  1  2.6935  1.41212  1.17174
 4249.89  27.6907  1.0  3.212  1.72736  1.09718
 4279.89  27.4802  1  3.26683  1.82463  1.01547
 4309.89  27.2729  1.0  3.32377  1.92851  0.943008
 4339.89  27.069  1  3.37975  2.03607  0.868706
 4369.89  26.8681  1.0  3.43274  2.14955  0.82507
 4399.89  26.6704  1  3.48271  2.26392  0.766954
 4429.88  26.4757  1.0  3.53226  2.38345  0.722682
 4459.88  26.2839  1  3.58456  2.5109  0.698906
 4489.88  26.095  1.0  3.63516  2.64142  0.675844
 4519.88  25.9089  1  3.68073  2.77257  0.658831
 4549.88  25.7255  1.0  3.72735  2.90939  0.654212
 4579.88  25.5448  1  3.77083  3.04742  0.651471
 4609.87  25.3668  1.0  3.81049  3.1863  0.655066
 4639.87  25.1913  1  3.8373  3.31794  0.665615
 4669.87  25.0182  1.0  3.89104  3.47727  0.695651
 4699.87  24.8477  1  3.93195  3.6292  0.732169
 4729.87  24.6795  1.0  3.96756  3.77925  0.77143
 4759.86  24.5137  1  4.00203  3.93133  0.818182
 4789.86  24.3502  1.0  4.04567  4.096  0.879792
 4819.86  24.1889  1  4.07902  4.2541  0.951688
 4849.86  24.0298  1.0  4.11075  4.41323  1.0366
 4879.86  23.8729  1  4.1412  4.57407  1.13249
 4909.86  23.718  1.0  4.16887  4.73468  1.23946
 4939.85  23.5653  1  4.19457  4.89496  1.35731
 4959.85  23.4645  1  4.21036  5.00127  1.44149

File: MEX1_29705_processed.xdi
# XDI/1.0
# Mono.d_spacing: 3.13897
# Reference.Element: Ag
# ROI.start_bin: nan
# ROI.end_bin: nan
# Element.symbol: None
# Element.edge: None
# Processing.version: spec_processing_library v0.3.5
# Column.1: energy
# Column.2: bragg
# Column.3: count_time seconds
# Column.4: i0
# Column.5: i1
# Column.6: i2
# Describe.Column.1: energy - MEX1ES01ZEB01:CALC_ENERGY_EV
# Describe.Column.2: bragg - MEX1ES01ZEB01:BRAGG_WITH_OFFSET
# Describe.Column.3: count_time - MEX1ES01ZEB01:GATE_TIME_SET
# Describe.Column.4: i0 - MEX1ES01DAQ01:ch1:S:MeanValue_RBV
# Describe.Column.5: i1 - MEX1ES01DAQ01:ch2:S:MeanValue_RBV
# Describe.Column.6: i2 - MEX1ES01DAQ01:ch3:S:MeanValue_RBV
# Samples: [417, 417, 417, 417, 417, 417]
# ///
# Ag foil
#
# xdi from default mda2xdi preset for mex1.
#--------
#  energy   bragg   count_time   i0   i1   i2
 3150.95  38.8122  1.0  1.23991  0.603939  3.95532
 3180.95  38.3789  1  1.11492  0.602381  3.97789
 3210.95  37.9562  1.0  1.14679  0.60656  4.01905
 3240.95  37.5436  1  1.20285  0.59422  3.93463
 3270.94  37.1409  1.0  1.25325  0.603577  3.98607
 3300.94  36.7475  1  1.33538  0.600444  3.93901
 3330.94  36.3632  1.0  1.2556  0.591916  3.88854
 3331.69  36.3537  1  1.27288  0.592278  3.88537
 3332.44  36.3442  1.0  1.28695  0.59102  3.8701
 3333.19  36.3347  1  1.29792  0.59391  3.88981
 3333.94  36.3252  1.0  1.3059  0.59363  3.88477
 3334.69  36.3158  1  1.31228  0.593555  3.88094
 3335.44  36.3063  1.0  1.31697  0.593519  3.87911
 3336.19  36.2968  1  1.31992  0.593378  3.87698
 3336.94  36.2874  1.0  1.32026  0.593235  3.87518
 3337.69  36.2779  1  1.31653  0.592909  3.87307
 3338.44  36.2685  1.0  1.31176  0.592466  3.87185
 3339.19  36.259  1  1.30962  0.592209  3.86916
 3339.94  36.2496  1.0  1.31178  0.593096  3.87417
 3340.69  36.2402  1  1.3091  0.592615  3.87244
 3341.44  36.2307  1.0  1.30393  0.59229  3.87025
 3342.19  36.2213  1  1.29849  0.591922  3.86831
 3342.94  36.2119  1.0  1.29456  0.591511  3.86658
 3343.69  36.2025  1  1.29207  0.591253  3.86493
 3344.44  36.1931  1.0  1.2906  0.590925  3.8629
 3345.19  36.1837  1  1.29009  0.590768  3.86165
 3345.94  36.1743  1.0  1.29043  0.590601  3.85996
 3346.69  36.1649  1  1.29149  0.590449  3.85832
 3347.44  36.1555  1.0  1.29378  0.590402  3.85603
 3348.19  36.1462  1  1.29763  0.590378  3.85414
 3348.94  36.1368  1.0  1.30261  0.590387  3.85195
 3349.69  36.1274  1  1.30727  0.590515  3.85058
 3350.44  36.1181  1.0  1.30966  0.590452  3.84894
 3351.19  36.1087  1  1.30956  0.590189  3.84681
 3351.94  36.0994  1.0  1.30893  0.589925  3.84528
 3352.69  36.09  1  1.30973  0.589827  3.84301
 3353.44  36.0807  1.0  1.31254  0.589723  3.84085
 3354.19  36.0713  1  1.31624  0.589811  3.83974
 3354.94  36.062  1.0  1.31902  0.58979  3.83806
 3355.69  36.0527  1  1.3196  0.589642  3.83671
 3356.44  36.0434  1.0  1.31762  0.589335  3.83411
 3357.19  36.0341  1  1.314  0.58907  3.83266
 3357.94  36.0247  1.0  1.31026  0.588674  3.83085
 3358.69  36.0154  1  1.30765  0.588296  3.82859
 3359.44  36.0061  1.0  1.30695  0.588152  3.82628
 3360.19  35.9969  1  1.30831  0.588054  3.82476
 3360.94  35.9876  1.0  1.31139  0.587974  3.82257
 3361.69  35.9783  1  1.31531  0.587045  3.81275
 3362.44  35.969  1.0  1.31982  0.58805  3.81884
 3363.19  35.9597  1  1.3237  0.588132  3.8171
 3363.94  35.9505  1.0  1.32673  0.588043  3.81568
 3364.69  35.9412  1  1.32897  0.588018  3.81384
 3365.44  35.9319  1.0  1.33045  0.58783  3.81228
 3366.19  35.9227  1  1.33143  0.587789  3.81038
 3366.94  35.9134  1.0  1.33174  0.586801  3.80194
 3367.69  35.9042  1  1.33209  0.586856  3.80138
 3368.44  35.895  1.0  1.33272  0.587392  3.80537
 3369.19  35.8857  1  1.33348  0.587165  3.80245
 3369.94  35.8765  1.0  1.33787  0.588028  3.80632
 3370.69  35.8673  1  1.33935  0.587861  3.80367
 3371.44  35.8581  1.0  1.341  0.587882  3.80242
 3372.19  35.8489  1  1.34254  0.587669  3.80054
 3372.94  35.8397  1.0  1.3435  0.586864  3.7918
 3373.69  35.8305  1  1.34369  0.584706  3.77279
 3374.44  35.8213  1.0  1.34447  0.587452  3.79579
 3375.19  35.8121  1  1.34436  0.5872  3.79303
 3375.94  35.8029  1.0  1.34411  0.586993  3.79039
 3376.69  35.7937  1  1.34329  0.584287  3.76798
 3377.44  35.7846  1.0  1.34358  0.586964  3.78963
 3378.19  35.7754  1  1.34329  0.586616  3.78633
 3378.94  35.7662  1.0  1.34306  0.586306  3.78328
 3379.69  35.7571  1  1.34276  0.585243  3.77479
 3380.44  35.7479  1.0  1.34302  0.586157  3.78149
 3381.19  35.7388  1  1.34346  0.585949  3.77833
 3381.94  35.7296  1.0  1.34419  0.585722  3.7768
 3382.69  35.7205  1  1.34543  0.585613  3.77406
 3383.44  35.7114  1.0  1.34725  0.585318  3.77012
 3384.19  35.7022  1  1.35  0.585681  3.77153
 3384.94  35.6931  1.0  1.3532  0.585695  3.76946
 3385.69  35.684  1  1.35694  0.585727  3.7676
 3386.44  35.6749  1.0  1.36086  0.585816  3.76559
 3387.19  35.6658  1  1.36473  0.585838  3.76395
 3387.94  35.6567  1.0  1.36836  0.586001  3.76207
 3388.69  35.6476  1  1.37164  0.585957  3.76037
 3389.44  35.6385  1.0  1.37466  0.585928  3.75825
 3390.19  35.6294  1  1.37748  0.585834  3.75662
 3390.94  35.6203  1.0  1.38022  0.585807  3.75391
 3391.69  35.6112  1  1.38289  0.585897  3.75308
 3392.44  35.6022  1.0  1.38513  0.584698  3.74071
 3393.19  35.5931  1  1.38773  0.585676  3.74625
 3393.94  35.584  1.0  1.39001  0.585485  3.74436
 3394.69  35.575  1  1.39199  0.584979  3.73806
 3395.44  35.5659  1.0  1.39359  0.583876  3.72642
 3396.19  35.5569  1  1.39541  0.584753  3.73216
 3396.94  35.5478  1.0  1.39708  0.585854  3.74079
 3397.69  35.5388  1  1.39838  0.586166  3.74135
 3398.44  35.5298  1.0  1.39963  0.585925  3.73926
 3399.19  35.5207  1  1.40073  0.585323  3.73245
 3399.94  35.5117  1.0  1.40513  0.586599  3.74031
 3400.69  35.5027  1  1.40655  0.586546  3.73838
 3420.94  35.2611  1.0  1.3838  0.57902  3.66266
 3450.94  34.9098  1  1.47296  0.579998  3.58067
 3480.93  34.5659  1.0  1.54701  0.58107  3.48923
 3510.93  34.2293  1  1.60545  0.581946  3.384
 3540.93  33.8997  1.0  1.67712  0.582449  3.24874
 3570.93  33.5769  1  1.75031  0.586451  3.11671
 3600.93  33.2606  1.0  1.79962  0.591204  2.99036
 3630.93  32.9506  1  1.80439  0.591617  2.8546
 3660.93  32.6468  1.0  1.87854  0.605595  2.73999
 3690.92  32.349  1  1.93225  0.624113  2.66266
 3720.92  32.0569  1.0  2.00491  0.646843  2.57435
 3750.92  31.7704  1  2.08  0.672493  2.47838
 3780.92  31.4893  1.0  2.14635  0.702134  2.39779
 3810.92  31.2134  1  2.22474  0.734323  2.28568
 3840.92  30.9426  1.0  2.28689  0.769423  2.19394
 3870.92  30.6768  1  2.35588  0.808969  2.0961
 3900.91  30.4158  1.0  2.4322  0.853086  1.98661
 3930.91  30.1594  1  2.49764  0.897968  1.87147
 3960.91  29.9076  1.0  2.56202  0.944676  1.73626
 3990.91  29.6602  1  2.62665  0.997822  1.61914
 4020.91  29.417  1.0  2.68539  1.05405  1.50768
 4050.91  29.1781  1  2.75043  1.11891  1.41792
 4080.9  28.9432  1.0  2.81778  1.18549  1.29329
 4110.9  28.7122  1  2.87387  1.2537  1.18192
 4140.9  28.4851  1.0  2.93351  1.33072  1.09836
 4170.9  28.2617  1  2.99293  1.41198  1.01396
 4200.9  28.042  1.0  3.04829  1.49633  0.935698
 4230.9  27.8258  1  3.1198  1.59312  0.862122
 4260.89  27.6131  1.0  3.16748  1.68675  0.822671
 4290.89  27.4038  1  3.22335  1.7879  0.779984
 4320.89  27.1978  1.0  3.27616  1.89197  0.740461
 4350.89  26.9949  1  3.33616  2.00598  0.718535
 4380.89  26.7953  1.0  3.38706  2.12016  0.70948
 4410.89  26.5986  1  3.43759  2.23912  0.713429
 4440.88  26.405  1.0  3.48206  2.35765  0.715362
 4470.88  26.2143  1  3.53154  2.48504  0.739204
 4500.88  26.0264  1.0  3.58153  2.61801  0.778408
 4530.88  25.8413  1  3.62368  2.74854  0.818293
 4560.88  25.6589  1.0  3.66523  2.88255  0.86767
 4580.88  25.5388  1.0  3.69131  2.9727  0.905015

File: MEX1_29706_processed.xdi
# XDI/1.0
# Mono.d_spacing: 3.13897
# Reference.Element: Ca
# ROI.start_bin: nan
# ROI.end_bin: nan
# Element.symbol: None
# Element.edge: None
# Processing.version: spec_processing_library v0.3.5
# Column.1: energy
# Column.2: bragg
# Column.3: count_time seconds
# Column.4: i0
# Column.5: i1
# Column.6: i2
# Describe.Column.1: energy - MEX1ES01ZEB01:CALC_ENERGY_EV
# Describe.Column.2: bragg - MEX1ES01ZEB01:BRAGG_WITH_OFFSET
# Describe.Column.3: count_time - MEX1ES01ZEB01:GATE_TIME_SET
# Describe.Column.4: i0 - MEX1ES01DAQ01:ch1:S:MeanValue_RBV
# Describe.Column.5: i1 - MEX1ES01DAQ01:ch2:S:MeanValue_RBV
# Describe.Column.6: i2 - MEX1ES01DAQ01:ch3:S:MeanValue_RBV
# Samples: [417, 417, 417, 417, 417, 417]
# ///
# CaCO3
#
# xdi from default mda2xdi preset for mex1.
#--------
#  energy   bragg   count_time   i0   i1   i2
 3838.42  30.965  1  2.29781  0.309542  3.87198
 3868.42  30.6988  1.0  2.37142  0.329744  3.85365
 3898.41  30.4373  1  2.45636  0.355061  3.92027
 3928.41  30.1806  1.0  2.53144  0.380573  3.961
 3958.41  29.9284  1  2.6056  0.406853  3.9724
 3988.41  29.6806  1.0  2.67948  0.434326  3.95919
 4018.41  29.4371  1  2.74226  0.46171  3.92535
 4019.16  29.4311  1.0  2.74604  0.462749  3.92672
 4019.91  29.4251  1  2.74914  0.463592  3.92525
 4020.66  29.4191  1.0  2.75174  0.464409  3.92346
 4021.41  29.413  1  2.75409  0.465173  3.92213
 4022.16  29.407  1.0  2.75637  0.466013  3.92077
 4022.91  29.401  1  2.75844  0.466734  3.91905
 4023.66  29.395  1.0  2.76041  0.467482  3.91709
 4024.41  29.389  1  2.76244  0.468195  3.91549
 4025.16  29.3829  1.0  2.7643  0.46894  3.91361
 4025.91  29.3769  1  2.76607  0.469617  3.91088
 4026.66  29.3709  1.0  2.76794  0.470388  3.91012
 4027.41  29.3649  1  2.77049  0.472114  3.92603
 4028.16  29.3589  1.0  2.77304  0.473918  3.94007
 4028.91  29.3529  1  2.77376  0.473153  3.91374
 4029.66  29.3469  1.0  2.77551  0.473673  3.90999
 4030.41  29.3409  1  2.78351  0.475345  3.91379
 4031.16  29.3349  1.0  2.78515  0.476043  3.91129
 4031.91  29.3289  1  2.78693  0.476756  3.90918
 4032.66  29.323  1.0  2.78864  0.477442  3.90652
 4033.41  29.317  1  2.79049  0.478167  3.90511
 4034.16  29.311  1.0  2.79226  0.478901  3.90265
 4034.91  29.305  1  2.79378  0.479542  3.89828
 4035.66  29.299  1.0  2.79554  0.480171  3.89526
 4036.41  29.2931  1  2.79683  0.480081  3.86252
 4037.16  29.2871  1.0  2.79906  0.481698  3.89268
 4037.91  29.2811  1  2.79819  0.478138  3.7422
 4038.66  29.2752  1.0  2.80223  0.483485  3.90109
 4039.41  29.2692  1  2.80201  0.480803  3.77949
 4040.16  29.2632  1.0  2.80555  0.484936  3.89739
 4040.91  29.2573  1  2.80689  0.485606  3.89271
 4041.66  29.2513  1.0  2.80753  0.486151  3.88706
 4042.41  29.2454  1  2.80858  0.486765  3.88234
 4043.16  29.2394  1.0  2.81008  0.487502  3.87827
 4043.91  29.2335  1  2.81165  0.48821  3.87435
 4044.66  29.2275  1.0  2.81324  0.488899  3.87307
 4045.41  29.2216  1  2.81463  0.489652  3.87081
 4046.16  29.2156  1.0  2.81603  0.490297  3.86806
 4046.91  29.2097  1  2.81721  0.490975  3.86534
 4047.66  29.2038  1.0  2.81836  0.491687  3.86409
 4048.41  29.1978  1  2.81927  0.491587  3.83538
 4049.16  29.1919  1.0  2.82116  0.493062  3.8611
 4049.91  29.186  1  2.82251  0.493812  3.86015
 4050.66  29.1801  1.0  2.82398  0.49453  3.85971
 4051.41  29.1741  1  2.82598  0.495307  3.85901
 4052.16  29.1682  1.0  2.82788  0.496123  3.85729
 4052.91  29.1623  1  2.82991  0.496911  3.8576
 4053.66  29.1564  1.0  2.83235  0.497814  3.85579
 4054.41  29.1505  1  2.83454  0.498674  3.85291
 4055.16  29.1446  1.0  2.83642  0.499152  3.84022
 4055.91  29.1386  1  2.83846  0.500211  3.84923
 4056.66  29.1327  1.0  2.8398  0.500328  3.82275
 4057.41  29.1268  1  2.84217  0.501806  3.84401
 4058.16  29.1209  1.0  2.84393  0.502649  3.84424
 4058.91  29.115  1  2.84593  0.503427  3.84253
 4059.66  29.1091  1.0  2.84789  0.504241  3.84173
 4060.41  29.1033  1  2.84959  0.50504  3.83976
 4061.16  29.0974  1.0  2.85778  0.506844  3.84433
 4061.91  29.0915  1  2.85962  0.507658  3.84341
 4062.66  29.0856  1.0  2.86159  0.508455  3.84313
 4063.41  29.0797  1  2.86324  0.508968  3.82992
 4064.16  29.0738  1.0  2.8653  0.51005  3.83842
 4064.91  29.068  1  2.86729  0.510885  3.83835
 4065.66  29.0621  1.0  2.86925  0.511693  3.83861
 4066.41  29.0562  1  2.871  0.512503  3.83627
 4067.15  29.0503  1.0  2.87271  0.513299  3.83514
 4067.91  29.0445  1  2.87448  0.514118  3.83393
 4068.66  29.0386  1.0  2.87625  0.514885  3.83231
 4069.41  29.0327  1  2.87793  0.51564  3.83022
 4070.15  29.0269  1.0  2.87953  0.5164  3.82843
 4070.91  29.021  1  2.88149  0.517214  3.82671
 4071.66  29.0152  1.0  2.88318  0.518026  3.82333
 4072.41  29.0093  1  2.88486  0.518807  3.82232
 4073.15  29.0035  1.0  2.88654  0.519616  3.8199
 4073.91  28.9976  1  2.88819  0.520344  3.81805
 4074.66  28.9918  1.0  2.88977  0.521115  3.81753
 4075.4  28.9859  1  2.89135  0.521908  3.81284
 4076.15  28.9801  1.0  2.8928  0.522655  3.81078
 4076.91  28.9743  1  2.89443  0.52346  3.80833
 4077.66  28.9684  1.0  2.89584  0.524213  3.80658
 4078.4  28.9626  1  2.89727  0.524932  3.80489
 4079.15  28.9568  1.0  2.89874  0.52567  3.80486
 4079.91  28.9509  1  2.90035  0.526494  3.80271
 4080.65  28.9451  1.0  2.90192  0.527224  3.80082
 4081.4  28.9393  1  2.9034  0.528037  3.79743
 4082.15  28.9335  1.0  2.90489  0.528778  3.79487
 4082.9  28.9277  1  2.90638  0.529532  3.79358
 4083.65  28.9218  1.0  2.90793  0.530298  3.79113
 4084.4  28.916  1  2.90932  0.531079  3.78937
 4085.15  28.9102  1.0  2.91064  0.531807  3.78551
 4085.9  28.9044  1  2.91203  0.532557  3.78429
 4086.65  28.8986  1.0  2.91367  0.533356  3.78181
 4087.4  28.8928  1  2.91502  0.5341  3.78077
 4088.15  28.887  1.0  2.91642  0.534867  3.77865
 4108.4  28.7313  1  2.96098  0.556457  3.70698
 4138.4  28.5039  1.0  3.02837  0.590838  3.62748
 4168.4  28.2802  1  3.09684  0.62671  3.51572
 4198.4  28.0602  1.0  3.16898  0.664787  3.38468
 4228.4  27.8437  1  3.2511  0.706757  3.24591
 4258.39  27.6307  1.0  3.3042  0.745505  3.12189
 4288.39  27.4211  1  3.36574  0.787097  2.96791
 4318.39  27.2148  1.0  3.42694  0.830688  2.81561
 4348.39  27.0117  1  3.48543  0.875289  2.64963
 4378.39  26.8118  1.0  3.54387  0.922563  2.51607
 4408.39  26.6149  1  3.59954  0.970589  2.36457
 4438.38  26.421  1.0  3.65238  1.01961  2.20877
 4468.38  26.2301  1  3.7077  1.07195  2.08841
 4498.38  26.042  1.0  3.76141  1.12549  1.96737
 4528.38  25.8566  1  3.81135  1.17982  1.85163
 4558.38  25.674  1.0  3.85962  1.23522  1.72919
 4588.38  25.4941  1  3.90597  1.29156  1.60863
 4618.37  25.3168  1.0  3.95183  1.34966  1.5058
 4648.37  25.142  1  3.99266  1.40756  1.40879
 4678.37  24.9697  1.0  4.04004  1.46966  1.33678
 4708.37  24.7998  1  4.07868  1.52936  1.23023
 4738.37  24.6323  1.0  4.1181  1.59082  1.13916
 4768.37  24.4671  1  4.1566  1.65355  1.06704
 4798.36  24.3043  1.0  4.19207  1.71628  1.00264
 4828.36  24.1436  1  4.22761  1.78103  0.980949
 4858.36  23.9851  1.0  4.26309  1.84739  0.996297
 4888.36  23.8288  1  4.29685  1.91436  1.03645
 4918.36  23.6745  1.0  4.32573  1.98045  1.10103
 4948.35  23.5223  1  4.35416  2.04769  1.1935
 4978.35  23.3722  1.0  4.38119  2.11521  1.31143
 5008.35  23.2239  1  4.40664  2.18284  1.44577
 5038.35  23.0776  1.0  4.43221  2.25127  1.59117
 5068.34  22.9332  1  4.45269  2.31766  1.74608
 5098.34  22.7907  1.0  4.47512  2.38583  1.91775
 5128.34  22.6499  1  4.49739  2.45433  2.10796
 5158.34  22.5109  1.0  4.51835  2.52281  2.31469
 5188.34  22.3737  1  4.53771  2.59083  2.53683
 5218.33  22.2382  1.0  4.55373  2.65734  2.77266
 5248.33  22.1044  1  4.56735  2.72266  3.02266
 5268.33  22.0161  1  4.57925  2.76814  3.20153