Folder: xdiProc (part 3)

File: MEX1_29692_processed.xdi
# XDI/1.0
# Mono.d_spacing: 3.13897
# Reference.Element: Pt
# ROI.start_bin: nan
# ROI.end_bin: nan
# Element.symbol: None
# Element.edge: None
# Processing.version: spec_processing_library v0.3.5
# Column.1: energy
# Column.2: bragg
# Column.3: count_time seconds
# Column.4: i0
# Column.5: i1
# Column.6: i2
# Describe.Column.1: energy - MEX1ES01ZEB01:CALC_ENERGY_EV
# Describe.Column.2: bragg - MEX1ES01ZEB01:BRAGG_WITH_OFFSET
# Describe.Column.3: count_time - MEX1ES01ZEB01:GATE_TIME_SET
# Describe.Column.4: i0 - MEX1ES01DAQ01:ch1:S:MeanValue_RBV
# Describe.Column.5: i1 - MEX1ES01DAQ01:ch2:S:MeanValue_RBV
# Describe.Column.6: i2 - MEX1ES01DAQ01:ch3:S:MeanValue_RBV
# Samples: [417, 417, 417, 417, 417, 417]
# ///
# Pt foil
#
# xdi from default mda2xdi preset for mex1.
#--------
#  energy   bragg   count_time   i0   i1   i2
 11363.1  10.0089  1  3.57193  3.174  2.6271
 11393.2  9.98221  1.0  3.61452  3.2148  2.68269
 11423.2  9.95573  1  3.58786  3.19394  2.6858
 11453.2  9.92939  1.0  3.55877  3.17077  2.68663
 11483.2  9.90319  1  3.53079  3.14863  2.68527
 11513.2  9.87713  1.0  3.503  3.12661  2.67362
 11543.2  9.85121  1  3.4752  3.10424  2.58615
 11543.9  9.85059  1.0  3.47444  3.10372  2.57944
 11544.6  9.84994  1  3.47354  3.10286  2.57181
 11545.4  9.8493  1.0  3.47243  3.10216  2.56352
 11546.1  9.84865  1  3.47169  3.10146  2.55455
 11546.9  9.848  1.0  3.47093  3.10077  2.54464
 11547.6  9.84736  1  3.47003  3.10013  2.53344
 11548.4  9.84671  1.0  3.46903  3.09943  2.52133
 11549.1  9.84607  1  3.46806  3.09863  2.50744
 11549.9  9.84542  1.0  3.46735  3.09791  2.49204
 11550.6  9.84477  1  3.46652  3.09735  2.47434
 11551.4  9.84413  1.0  3.46544  3.09645  2.45426
 11552.1  9.84348  1  3.46465  3.09568  2.4312
 11552.9  9.84284  1.0  3.46384  3.09503  2.40495
 11553.6  9.84219  1  3.46286  3.09423  2.37427
 11554.4  9.84155  1.0  3.46192  3.09342  2.33858
 11555.1  9.8409  1  3.46092  3.09267  2.29649
 11555.9  9.84026  1.0  3.4602  3.09199  2.24645
 11556.6  9.83961  1  3.4593  3.09137  2.18622
 11557.4  9.83897  1.0  3.45827  3.09068  2.11262
 11558.1  9.83832  1  3.45771  3.08995  2.02209
 11558.9  9.83768  1.0  3.45669  3.08933  1.91078
 11559.6  9.83703  1  3.4558  3.08855  1.77238
 11560.4  9.83639  1.0  3.45501  3.08782  1.60356
 11561.1  9.83574  1  3.46202  3.0942  1.40645
 11561.9  9.8351  1.0  3.46107  3.0935  1.18172
 11562.6  9.83446  1  3.46008  3.09269  0.955692
 11563.4  9.83381  1.0  3.45934  3.09204  0.758656
 11564.1  9.83317  1  3.45835  3.09114  0.619634
 11564.9  9.83252  1.0  3.45742  3.09047  0.546824
 11565.6  9.83188  1  3.45666  3.08979  0.529134
 11566.4  9.83124  1.0  3.45582  3.08907  0.546728
 11567.1  9.83059  1  3.45491  3.08846  0.581408
 11567.9  9.82995  1.0  3.45391  3.08748  0.620954
 11568.6  9.82931  1  3.45297  3.0869  0.658454
 11569.4  9.82866  1.0  3.45224  3.08625  0.690457
 11570.1  9.82802  1  3.45127  3.08545  0.716585
 11570.9  9.82738  1.0  3.45038  3.08475  0.738222
 11571.6  9.82673  1  3.44953  3.08405  0.757406
 11572.4  9.82609  1.0  3.44871  3.08318  0.77384
 11573.1  9.82545  1  3.44804  3.0825  0.786514
 11573.9  9.8248  1.0  3.44693  3.08186  0.794285
 11574.625  9.82416  1  3.44594  3.08102  0.796484
 11575.4  9.82352  1.0  3.44521  3.08036  0.793648
 11576.125  9.82288  1  3.44444  3.0797  0.786302
 11576.9  9.82223  1.0  3.44343  3.07908  0.776244
 11577.6  9.82159  1  3.44245  3.07823  0.765543
 11578.375  9.82095  1.0  3.44167  3.07741  0.75621
 11579.1  9.82031  1  3.44073  3.07676  0.750745
 11579.9  9.81966  1.0  3.43988  3.07618  0.750469
 11580.625  9.81902  1  3.43903  3.07532  0.756061
 11581.4  9.81838  1.0  3.43819  3.07476  0.766638
 11582.125  9.81774  1  3.4373  3.07401  0.779611
 11582.875  9.81709  1.0  3.43644  3.07326  0.791684
 11583.625  9.81645  1  3.43562  3.07254  0.800155
 11584.375  9.81581  1.0  3.43474  3.07177  0.804613
 11585.125  9.81517  1  3.43369  3.07104  0.805824
 11585.875  9.81453  1.0  3.43295  3.07041  0.805155
 11586.6  9.81389  1  3.43221  3.06973  0.802981
 11587.4  9.81325  1.0  3.43131  3.069  0.798647
 11588.1  9.8126  1  3.43032  3.06808  0.791367
 11588.875  9.81196  1.0  3.42943  3.06749  0.780693
 11589.6  9.81132  1  3.42859  3.06679  0.766934
 11590.4  9.81068  1.0  3.43565  3.07335  0.752918
 11591.1  9.81004  1  3.43481  3.07251  0.736693
 11591.9  9.8094  1.0  3.43383  3.07187  0.722001
 11592.6  9.80876  1  3.43315  3.07107  0.710961
 11593.4  9.80812  1.0  3.43241  3.07044  0.705507
 11594.1  9.80748  1  3.43146  3.06975  0.705751
 11594.9  9.80684  1.0  3.43046  3.06892  0.710782
 11595.6  9.8062  1  3.42955  3.0682  0.719202
 11596.4  9.80556  1.0  3.42873  3.0675  0.7292
 11597.1  9.80492  1  3.42781  3.06672  0.739195
 11597.9  9.80428  1.0  3.42696  3.06596  0.748696
 11598.6  9.80363  1  3.42599  3.06533  0.756737
 11599.4  9.80299  1.0  3.42533  3.0647  0.763139
 11600.1  9.80235  1  3.42437  3.06392  0.767383
 11600.9  9.80172  1.0  3.42359  3.0632  0.770193
 11601.6  9.80107  1  3.42259  3.06247  0.772521
 11602.4  9.80044  1.0  3.42164  3.06176  0.775054
 11603.1  9.7998  1  3.42096  3.06117  0.778328
 11603.9  9.79916  1.0  3.42013  3.0604  0.782606
 11604.6  9.79852  1  3.41933  3.05985  0.78722
 11605.4  9.79788  1.0  3.41837  3.05899  0.791693
 11606.1  9.79724  1  3.41762  3.05836  0.795223
 11606.9  9.7966  1.0  3.41666  3.05769  0.79722
 11607.6  9.79596  1  3.41584  3.05695  0.797213
 11608.4  9.79532  1.0  3.41499  3.05627  0.795294
 11609.1  9.79468  1  3.41417  3.05552  0.791611
 11609.9  9.79404  1.0  3.41343  3.05487  0.786578
 11610.6  9.7934  1  3.41222  3.05401  0.780511
 11611.4  9.79277  1.0  3.41156  3.05339  0.773893
 11612.1  9.79213  1  3.41074  3.0528  0.767053
 11612.9  9.79149  1.0  3.40998  3.05205  0.760016
 11633.1  9.77426  1  3.39135  3.03724  0.754436
 11663.1  9.74888  1.0  3.35191  3.00432  0.752605
 11693.1  9.72362  1  3.33749  2.9938  0.758164
 11723.1  9.6985  1.0  3.31086  2.97222  0.77128
 11753.1  9.67351  1  3.27651  2.94385  0.750491
 11783.1  9.64865  1.0  3.25765  2.92924  0.792802
 11813.1  9.62392  1  3.22375  2.901  0.754384
 11843.1  9.59932  1.0  3.2046  2.88599  0.796472
 11873.1  9.57483  1  3.17897  2.8651  0.79466
 11903.1  9.55048  1.0  3.15115  2.8421  0.776627
 11933.1  9.52626  1  3.1269  2.82232  0.800598
 11963.1  9.50216  1.0  3.10131  2.80138  0.801313
 11993.1  9.47816  1  3.0825  2.78634  0.794086
 12023.1  9.45429  1.0  3.05682  2.76513  0.821742
 12053.1  9.43055  1  3.02991  2.74268  0.812556
 12083.1  9.40693  1.0  3.00571  2.72276  0.810577
 12113  9.38344  1  2.98013  2.70158  0.825203
 12143.1  9.36003  1.0  2.95338  2.67918  0.833373
 12173.1  9.33677  1  2.93144  2.66134  0.828527
 12203.1  9.31361  1.0  2.90554  2.6394  0.831099
 12233  9.29057  1  2.87708  2.61527  0.841957
 12263  9.26766  1.0  2.8331  2.57719  0.844921
 12293  9.24484  1  2.78217  2.53261  0.831617
 12323  9.22214  1.0  2.79137  2.54252  0.843287
 12353  9.19955  1  2.76605  2.52105  0.854989
 12383  9.17708  1.0  2.7434  2.502  0.860458
 12413  9.1547  1  2.71768  2.48018  0.861886
 12443  9.13245  1.0  2.69348  2.45968  0.86105
 12473  9.1103  1  2.67041  2.4402  0.866491
 12503  9.08827  1.0  2.64672  2.41994  0.874678
 12533  9.06633  1  2.6232  2.39984  0.878572
 12563  9.0445  1.0  2.5996  2.37954  0.88001
 12593  9.02278  1  2.57546  2.35915  0.880498
 12623  9.00116  1.0  2.55032  2.33733  0.884718
 12653  8.97964  1  2.52677  2.31726  0.890138
 12683  8.95823  1.0  2.50256  2.29635  0.89399
 12713  8.93692  1  2.47862  2.27569  0.894822
 12743  8.91571  1.0  2.45533  2.25559  0.896503
 12773  8.8946  1  2.4316  2.23518  0.899457
 12793  8.88059  1  2.41595  2.22152  0.90149

File: MEX1_29693_processed.xdi
# XDI/1.0
# Mono.d_spacing: 3.13897
# Reference.Element: Se
# ROI.start_bin: nan
# ROI.end_bin: nan
# Element.symbol: None
# Element.edge: None
# Processing.version: spec_processing_library v0.3.5
# Column.1: energy
# Column.2: bragg
# Column.3: count_time seconds
# Column.4: i0
# Column.5: i1
# Column.6: i2
# Describe.Column.1: energy - MEX1ES01ZEB01:CALC_ENERGY_EV
# Describe.Column.2: bragg - MEX1ES01ZEB01:BRAGG_WITH_OFFSET
# Describe.Column.3: count_time - MEX1ES01ZEB01:GATE_TIME_SET
# Describe.Column.4: i0 - MEX1ES01DAQ01:ch1:S:MeanValue_RBV
# Describe.Column.5: i1 - MEX1ES01DAQ01:ch2:S:MeanValue_RBV
# Describe.Column.6: i2 - MEX1ES01DAQ01:ch3:S:MeanValue_RBV
# Samples: [417, 417, 417, 417, 417, 417]
# ///
# Se foil
#
# xdi from default mda2xdi preset for mex1.
#--------
#  energy   bragg   count_time   i0   i1   i2
 12457  9.12212  1.0  2.67823  2.44649  4.50349
 12487  9.1  1  2.65083  2.42287  4.46975
 12517  9.07801  1.0  2.64078  2.41525  4.46434
 12547  9.05613  1  2.61766  2.39533  4.4358
 12577  9.03435  1.0  2.59408  2.37548  4.40455
 12607  9.01267  1  2.5703  2.35484  4.36595
 12637  8.9911  1.0  2.54635  2.33429  4.28254
 12637.7  8.99058  1  2.54565  2.33383  4.27758
 12638.5  8.99004  1.0  2.54481  2.33309  4.2718
 12639.2  8.98951  1  2.54416  2.33257  4.26559
 12640  8.98897  1.0  2.54343  2.33188  4.25905
 12640.7  8.98843  1  2.54271  2.33121  4.25203
 12641.5  8.98789  1.0  2.54183  2.33056  4.24366
 12642.2  8.98736  1  2.54127  2.33001  4.23476
 12643  8.98682  1.0  2.54054  2.32938  4.22493
 12643.7  8.98628  1  2.53975  2.32867  4.21395
 12644.5  8.98574  1.0  2.53907  2.3281  4.20072
 12645.2  8.98521  1  2.53819  2.32739  4.18558
 12646  8.98467  1.0  2.53763  2.32675  4.1686
 12646.7  8.98413  1  2.53693  2.32625  4.14802
 12647.5  8.98359  1.0  2.53618  2.32549  4.12349
 12648.2  8.98306  1  2.53546  2.32489  4.09385
 12649  8.98252  1.0  2.53473  2.32429  4.05747
 12649.7  8.98198  1  2.53405  2.32367  4.01194
 12650.5  8.98145  1.0  2.53337  2.32301  3.95425
 12651.2  8.98091  1  2.53247  2.32236  3.87845
 12652  8.98037  1.0  2.53174  2.32168  3.77617
 12652.7  8.97984  1  2.53114  2.3212  3.63339
 12653.5  8.9793  1.0  2.53039  2.32049  3.42592
 12654.2  8.97876  1  2.52961  2.31999  3.11779
 12655  8.97823  1.0  2.52887  2.31934  2.6707
 12655.7  8.97769  1  2.52812  2.31858  2.08952
 12656.5  8.97715  1.0  2.52753  2.31814  1.49346
 12657.2  8.97662  1  2.5267  2.31744  1.07915
 12658  8.97608  1.0  2.52599  2.31684  0.985984
 12658.7  8.97554  1  2.52526  2.31614  1.16396
 12659.5  8.97501  1.0  2.52446  2.31548  1.46744
 12660.2  8.97447  1  2.52392  2.31496  1.77862
 12661  8.97394  1.0  2.52313  2.3143  2.01205
 12661.7  8.9734  1  2.52232  2.31356  2.11695
 12662.5  8.97287  1.0  2.5217  2.31308  2.10217
 12663.2  8.97233  1  2.52088  2.31221  2.03176
 12664  8.9718  1.0  2.52574  2.31672  1.96651
 12664.7  8.97126  1  2.52502  2.31631  1.91718
 12665.5  8.97072  1.0  2.52447  2.31571  1.89113
 12666.2  8.97019  1  2.52359  2.31496  1.88624
 12667  8.96965  1.0  2.52285  2.31425  1.89002
 12667.7  8.96912  1  2.52224  2.31367  1.89177
 12668.5  8.96858  1.0  2.52153  2.31309  1.88887
 12669.2  8.96805  1  2.52071  2.31237  1.88303
 12670  8.96751  1.0  2.52008  2.31178  1.87753
 12670.7  8.96698  1  2.51938  2.31134  1.8747
 12671.5  8.96644  1.0  2.51827  2.31029  1.87558
 12672.2  8.96591  1  2.51784  2.30985  1.88184
 12673  8.96537  1.0  2.51725  2.3094  1.89292
 12673.7  8.96484  1  2.51654  2.3087  1.90625
 12674.4  8.9643  1.0  2.51575  2.30806  1.91905
 12675.2  8.96377  1  2.51507  2.30751  1.92994
 12676  8.96323  1.0  2.51429  2.30682  1.93791
 12676.7  8.9627  1  2.51359  2.30614  1.94382
 12677.5  8.96216  1.0  2.5129  2.30558  1.94804
 12678.2  8.96163  1  2.51199  2.30483  1.95024
 12678.9  8.96109  1.0  2.51129  2.30422  1.95141
 12679.7  8.96056  1  2.51065  2.30361  1.95123
 12680.4  8.96003  1.0  2.50993  2.30303  1.95046
 12681.2  8.95949  1  2.50928  2.3024  1.94912
 12681.9  8.95896  1.0  2.50843  2.30174  1.9483
 12682.7  8.95842  1  2.50787  2.30134  1.94814
 12683.4  8.95789  1.0  2.50698  2.30051  1.94801
 12684.2  8.95736  1  2.50641  2.29992  1.94766
 12684.9  8.95682  1.0  2.50553  2.29921  1.94736
 12685.7  8.95629  1  2.50493  2.29863  1.94702
 12686.4  8.95575  1.0  2.50412  2.29801  1.94631
 12687.2  8.95522  1  2.50348  2.29736  1.94563
 12687.9  8.95469  1.0  2.50255  2.29659  1.94465
 12688.7  8.95415  1  2.50191  2.2961  1.94403
 12689.4  8.95362  1.0  2.50114  2.2954  1.94332
 12690.2  8.95309  1  2.50053  2.29481  1.9425
 12690.9  8.95255  1.0  2.49982  2.29415  1.94161
 12691.7  8.95202  1  2.49895  2.29354  1.94029
 12692.4  8.95149  1.0  2.49829  2.29294  1.93895
 12693.2  8.95095  1  2.49771  2.29232  1.93678
 12693.9  8.95042  1.0  2.49685  2.29162  1.93451
 12694.7  8.94989  1  2.49611  2.29102  1.93179
 12695.4  8.94935  1.0  2.49972  2.29435  1.93256
 12696.2  8.94882  1  2.50085  2.2953  1.93154
 12696.9  8.94829  1.0  2.50005  2.29474  1.92927
 12697.7  8.94776  1  2.49936  2.29412  1.92726
 12698.4  8.94722  1.0  2.49863  2.29349  1.92589
 12699.2  8.94669  1  2.4979  2.29291  1.92501
 12699.9  8.94616  1.0  2.4971  2.29209  1.92491
 12700.7  8.94563  1  2.49638  2.29141  1.92522
 12701.4  8.94509  1.0  2.49574  2.29103  1.92677
 12702.2  8.94456  1  2.49504  2.2903  1.9291
 12702.9  8.94403  1.0  2.49424  2.2896  1.93219
 12703.7  8.9435  1  2.49348  2.2889  1.93623
 12704.4  8.94296  1.0  2.49287  2.28849  1.94081
 12705.2  8.94243  1  2.4921  2.28761  1.94544
 12705.9  8.9419  1.0  2.49149  2.28711  1.94982
 12706.7  8.94137  1  2.49077  2.28655  1.9537
 12727  8.92701  1.0  2.47458  2.27254  1.95317
 12756.9  8.90586  1  2.45173  2.25282  1.95672
 12787  8.88479  1.0  2.42864  2.2329  1.93549
 12816.9  8.86383  1  2.4052  2.21266  1.93309
 12846.9  8.84297  1.0  2.37992  2.1906  1.94885
 12876.9  8.82221  1  2.35815  2.17182  1.90649
 12906.9  8.80154  1.0  2.33449  2.15121  1.92361
 12936.9  8.78097  1  2.30334  2.12361  1.92239
 12966.9  8.7605  1.0  2.28699  2.10959  1.90068
 12996.9  8.74012  1  2.26575  2.09105  1.89869
 13026.9  8.71984  1.0  2.24225  2.07059  1.9109
 13056.9  8.69965  1  2.21839  2.04962  1.89721
 13086.9  8.67956  1.0  2.19454  2.02866  1.88163
 13116.9  8.65956  1  2.17094  2.00776  1.87897
 13146.9  8.63965  1.0  2.14759  1.98716  1.88027
 13176.9  8.61984  1  2.12387  1.96623  1.87122
 13206.9  8.60011  1.0  2.10047  1.94546  1.8574
 13236.875  8.58048  1  2.07692  1.92464  1.8495
 13266.9  8.56093  1.0  2.05295  1.90347  1.84473
 13296.9  8.54147  1  2.02886  1.88184  1.83713
 13326.9  8.52211  1.0  2.00348  1.85924  1.824
 13356.9  8.50283  1  1.98008  1.8384  1.81213
 13386.8  8.48363  1.0  1.95518  1.81622  1.80093
 13416.8  8.46453  1  1.93013  1.79382  1.79112
 13446.8  8.44551  1.0  1.90833  1.77438  1.78284
 13476.8  8.42658  1  1.88145  1.75012  1.76798
 13506.8  8.40773  1.0  1.85769  1.72876  1.75471
 13536.8  8.38896  1  1.82927  1.70319  1.73803
 13566.8  8.37028  1.0  1.77025  1.64888  1.69261
 13596.8  8.35169  1  1.77072  1.65008  1.7036
 13626.8  8.33317  1.0  1.75124  1.63263  1.69483
 13656.8  8.31474  1  1.72302  1.60699  1.67667
 13686.8  8.29639  1.0  1.69433  1.58088  1.65742
 13716.8  8.27812  1  1.66488  1.55413  1.63767
 13746.8  8.25993  1.0  1.6345  1.52645  1.61676
 13776.8  8.24182  1  1.60338  1.49794  1.59493
 13806.8  8.22379  1.0  1.5713  1.46867  1.57163
 13836.8  8.20585  1  1.53795  1.4382  1.54636
 13866.8  8.18797  1.0  1.5035  1.40637  1.51907
 13886.8  8.1761  1.0  1.48023  1.38513  1.50089

File: MEX1_29694_processed.xdi
# XDI/1.0
# Mono.d_spacing: 3.13897
# Reference.Element: Zn
# ROI.start_bin: nan
# ROI.end_bin: nan
# Element.symbol: None
# Element.edge: None
# Processing.version: spec_processing_library v0.3.5
# Column.1: energy
# Column.2: bragg
# Column.3: count_time seconds
# Column.4: i0
# Column.5: i1
# Column.6: i2
# Describe.Column.1: energy - MEX1ES01ZEB01:CALC_ENERGY_EV
# Describe.Column.2: bragg - MEX1ES01ZEB01:BRAGG_WITH_OFFSET
# Describe.Column.3: count_time - MEX1ES01ZEB01:GATE_TIME_SET
# Describe.Column.4: i0 - MEX1ES01DAQ01:ch1:S:MeanValue_RBV
# Describe.Column.5: i1 - MEX1ES01DAQ01:ch2:S:MeanValue_RBV
# Describe.Column.6: i2 - MEX1ES01DAQ01:ch3:S:MeanValue_RBV
# Samples: [417, 417, 417, 417, 417, 417]
# ///
# Zn foil
#
# xdi from default mda2xdi preset for mex1.
#--------
#  energy   bragg   count_time   i0   i1   i2
 9458.41  12.0521  1  2.84401  2.319  2.65397
 9488.43  12.0134  1.0  2.82592  2.30864  2.65571
 9518.42  11.9749  1  2.80734  2.29774  2.65579
 9548.42  11.9368  1.0  2.78899  2.28692  2.65665
 9578.41  11.8988  1  2.7704  2.27582  2.65547
 9608.41  11.8612  1.0  2.75179  2.26475  2.64998
 9638.41  11.8237  1  2.73287  2.25317  2.62599
 9639.15  11.8228  1.0  2.72998  2.25091  2.6222
 9639.9  11.8219  1  2.72639  2.24802  2.61761
 9640.65  11.8209  1.0  2.72621  2.2479  2.61595
 9641.4  11.82  1  2.73525  2.2554  2.6233
 9642.15  11.8191  1.0  2.73154  2.25251  2.61819
 9642.9  11.8181  1  2.7297  2.25116  2.61452
 9643.65  11.8172  1.0  2.73239  2.25346  2.6152
 9644.4  11.8163  1  2.73384  2.25479  2.6146
 9645.15  11.8153  1.0  2.7337  2.25481  2.61178
 9645.9  11.8144  1  2.73334  2.2546  2.60856
 9646.65  11.8135  1.0  2.73274  2.25414  2.60493
 9647.4  11.8125  1  2.73223  2.2538  2.60076
 9648.15  11.8116  1.0  2.73161  2.25342  2.59619
 9648.9  11.8107  1  2.73024  2.25242  2.59046
 9649.65  11.8097  1.0  2.72661  2.24954  2.58168
 9650.4  11.8088  1  2.724  2.2475  2.57335
 9651.15  11.8079  1.0  2.72524  2.2486  2.56756
 9651.9  11.8069  1  2.72793  2.25091  2.56183
 9652.65  11.806  1.0  2.72775  2.25076  2.55169
 9653.4  11.8051  1  2.72723  2.25051  2.53935
 9654.15  11.8042  1.0  2.7266  2.25011  2.52428
 9654.9  11.8032  1  2.72599  2.24971  2.50562
 9655.65  11.8023  1.0  2.72553  2.24942  2.48203
 9656.4  11.8014  1  2.72473  2.24886  2.45048
 9657.15  11.8004  1.0  2.72422  2.2485  2.40743
 9657.9  11.7995  1  2.72384  2.24828  2.34398
 9658.65  11.7986  1.0  2.72317  2.24779  2.24232
 9659.4  11.7977  1  2.72252  2.24744  2.06275
 9660.15  11.7967  1.0  2.72164  2.24683  1.75169
 9660.9  11.7958  1  2.72096  2.24641  1.35293
 9661.65  11.7949  1.0  2.72034  2.24596  1.02746
 9662.4  11.7939  1  2.71937  2.24531  0.828042
 9663.15  11.793  1.0  2.71892  2.245  0.70548
 9663.9  11.7921  1  2.71823  2.24448  0.629905
 9664.65  11.7912  1.0  2.71742  2.24398  0.585417
 9665.4  11.7902  1  2.71671  2.24346  0.554516
 9666.14  11.7893  1.0  2.71614  2.24305  0.51999
 9666.89  11.7884  1  2.71542  2.24265  0.479939
 9667.64  11.7874  1.0  2.7149  2.24224  0.441827
 9668.39  11.7865  1  2.71416  2.24175  0.410154
 9669.14  11.7856  1.0  2.71367  2.2414  0.384746
 9669.89  11.7847  1  2.71291  2.24089  0.365778
 9670.64  11.7837  1.0  2.71239  2.24054  0.356419
 9671.39  11.7828  1  2.71174  2.24017  0.361861
 9672.14  11.7819  1.0  2.71108  2.23975  0.385847
 9672.89  11.781  1  2.71051  2.23936  0.422897
 9673.64  11.78  1.0  2.70999  2.23903  0.461273
 9674.39  11.7791  1  2.70948  2.23869  0.491181
 9675.14  11.7782  1.0  2.7153  2.24362  0.511029
 9675.89  11.7772  1  2.71477  2.24328  0.52182
 9676.64  11.7763  1.0  2.71404  2.24277  0.526925
 9677.39  11.7754  1  2.71357  2.24245  0.527791
 9678.14  11.7745  1.0  2.71297  2.24208  0.526945
 9678.89  11.7735  1  2.7124  2.24166  0.527984
 9679.64  11.7726  1.0  2.7118  2.24129  0.533159
 9680.39  11.7717  1  2.7111  2.24079  0.542932
 9681.14  11.7708  1.0  2.71052  2.24039  0.556098
 9681.89  11.7698  1  2.71  2.24012  0.570332
 9682.64  11.7689  1.0  2.70936  2.23968  0.582854
 9683.39  11.768  1  2.70888  2.23935  0.591472
 9684.14  11.7671  1.0  2.70816  2.23889  0.596385
 9684.89  11.7661  1  2.70762  2.23853  0.598587
 9685.64  11.7652  1.0  2.70704  2.23813  0.598742
 9686.39  11.7643  1  2.70638  2.23766  0.596825
 9687.14  11.7634  1.0  2.70538  2.23691  0.592564
 9687.89  11.7625  1  2.70417  2.2361  0.586417
 9688.64  11.7615  1.0  2.70362  2.2357  0.578898
 9689.39  11.7606  1  2.70359  2.23569  0.570315
 9690.14  11.7597  1.0  2.70323  2.23553  0.560925
 9690.89  11.7588  1  2.70272  2.23517  0.550986
 9691.64  11.7578  1.0  2.70202  2.23473  0.540755
 9692.39  11.7569  1  2.7015  2.23449  0.530517
 9693.14  11.756  1.0  2.70088  2.23403  0.520473
 9693.89  11.7551  1  2.70035  2.23366  0.511192
 9694.64  11.7541  1.0  2.69966  2.23327  0.50297
 9695.39  11.7532  1  2.69918  2.23282  0.496143
 9696.14  11.7523  1.0  2.69844  2.23243  0.490683
 9696.89  11.7514  1  2.69782  2.23193  0.486578
 9697.64  11.7505  1.0  2.69733  2.23161  0.483754
 9698.39  11.7495  1  2.69659  2.23119  0.482052
 9699.14  11.7486  1.0  2.69617  2.2309  0.481364
 9699.89  11.7477  1  2.6954  2.23034  0.481573
 9700.64  11.7468  1.0  2.69482  2.22997  0.482809
 9701.39  11.7459  1  2.69417  2.22953  0.485482
 9702.14  11.7449  1.0  2.69344  2.22899  0.489588
 9702.89  11.744  1  2.69291  2.22861  0.494958
 9703.64  11.7431  1.0  2.69213  2.22813  0.500777
 9704.39  11.7422  1  2.69154  2.22764  0.506393
 9705.14  11.7413  1.0  2.6904  2.22688  0.511198
 9705.89  11.7403  1  2.68901  2.22579  0.515121
 9706.64  11.7394  1.0  2.68775  2.2249  0.51837
 9707.39  11.7385  1  2.6868  2.22418  0.521093
 9708.14  11.7376  1.0  2.68318  2.22131  0.522666
 9728.39  11.7128  4.0  2.6826  2.22342  0.510004
 9758.39  11.6763  4  2.66442  2.21217  0.538658
 9788.38  11.64  4.0  2.60337  2.1651  0.488934
 9818.38  11.6039  4  2.62796  2.18916  0.544699
 9848.37  11.5681  4.0  2.60891  2.17689  0.522384
 9878.37  11.5325  4  2.59072  2.16519  0.535519
 9908.37  11.4971  4.0  2.57246  2.1534  0.548674
 9938.36  11.4619  4  2.55388  2.14124  0.5476
 9968.36  11.427  4.0  2.53648  2.12998  0.566437
 9998.35  11.3922  4  2.51511  2.11531  0.574694
 10028.4  11.3577  4.0  2.50078  2.10642  0.57807
 10058.3  11.3234  4  2.48313  2.09478  0.590445
 10088.3  11.2893  4.0  2.46521  2.0827  0.60056
 10118.3  11.2554  4  2.45319  2.07559  0.608327
 10148.3  11.2217  4.0  2.43528  2.06346  0.61466
 10178.3  11.1882  4  2.41688  2.05083  0.623917
 10208.3  11.1549  4.0  2.39861  2.03819  0.631574
 10238.3  11.1218  4  2.38142  2.02643  0.638155
 10268.3  11.0889  4.0  2.36391  2.01428  0.644835
 10298.3  11.0562  4  2.34639  2.00213  0.652159
 10328.3  11.0237  4.0  2.3289  1.98987  0.659157
 10358.3  10.9913  4  2.31157  1.97773  0.66528
 10388.3  10.9592  4.0  2.29431  1.96551  0.671169
 10418.3  10.9273  4  2.27705  1.95329  0.677215
 10448.3  10.8955  4.0  2.25987  1.94107  0.683314
 10478.3  10.8639  4  2.24283  1.92886  0.689067
 10508.3  10.8326  4.0  2.22571  1.91658  0.694456
 10538.3  10.8013  4  2.21161  1.90678  0.700766
 10568.3  10.7703  4.0  2.19254  1.89267  0.70542
 10598.3  10.7395  4  2.18102  1.88498  0.712354
 10628.3  10.7088  4.0  2.16386  1.87243  0.716887
 10658.3  10.6783  4  2.14208  1.85578  0.720207
 10688.3  10.648  4.0  2.1311  1.8484  0.726577
 10718.3  10.6179  4  2.11457  1.83623  0.731331
 10748.3  10.5879  4.0  2.09824  1.82414  0.735689
 10778.2  10.5581  4  2.08192  1.81202  0.739797
 10808.2  10.5284  4.0  2.05719  1.79251  0.740793
 10838.2  10.499  4  2.04998  1.7882  0.748208
 10868.2  10.4697  4.0  2.03417  1.77636  0.751952
 10888.2  10.4502  4.0  2.02342  1.76825  0.754331