Folder: xdiProc (part 8)

File: MEX1_29707_processed.xdi
# XDI/1.0
# Mono.d_spacing: 3.13897
# Reference.Element: K
# ROI.start_bin: nan
# ROI.end_bin: nan
# Element.symbol: None
# Element.edge: None
# Processing.version: spec_processing_library v0.3.5
# Column.1: energy
# Column.2: bragg
# Column.3: count_time seconds
# Column.4: i0
# Column.5: i1
# Column.6: i2
# Describe.Column.1: energy - MEX1ES01ZEB01:CALC_ENERGY_EV
# Describe.Column.2: bragg - MEX1ES01ZEB01:BRAGG_WITH_OFFSET
# Describe.Column.3: count_time - MEX1ES01ZEB01:GATE_TIME_SET
# Describe.Column.4: i0 - MEX1ES01DAQ01:ch1:S:MeanValue_RBV
# Describe.Column.5: i1 - MEX1ES01DAQ01:ch2:S:MeanValue_RBV
# Describe.Column.6: i2 - MEX1ES01DAQ01:ch3:S:MeanValue_RBV
# Samples: [417, 417, 417, 417, 417, 417]
# ///
# KCl
#
# xdi from default mda2xdi preset for mex1.
#--------
#  energy   bragg   count_time   i0   i1   i2
 3407.94  35.4158  1.0  2.83886  0.57212  3.20132
 3437.94  35.0611  1  2.89131  0.56952  3.13954
 3467.94  34.714  1.0  3.03337  0.575245  3.10409
 3497.93  34.3743  1  3.16942  0.579505  3.04204
 3527.93  34.0417  1.0  3.28264  0.583376  2.96501
 3557.93  33.7159  1  3.45962  0.590565  2.87023
 3587.93  33.3968  1.0  3.57292  0.597286  2.77523
 3588.68  33.3889  1  3.57536  0.597411  2.77218
 3589.43  33.3811  1.0  3.57756  0.597678  2.77001
 3590.18  33.3732  1  3.57988  0.597797  2.76782
 3590.93  33.3653  1.0  3.58214  0.597958  2.76563
 3591.68  33.3574  1  3.58451  0.598065  2.7624
 3592.43  33.3495  1.0  3.58682  0.598202  2.75988
 3593.18  33.3417  1  3.58908  0.598354  2.75716
 3593.93  33.3338  1.0  3.5914  0.598448  2.75476
 3594.68  33.3259  1  3.59387  0.598633  2.75204
 3595.43  33.3181  1.0  3.59608  0.598714  2.74975
 3596.18  33.3102  1  3.59836  0.598925  2.7468
 3596.93  33.3024  1.0  3.60042  0.599043  2.74407
 3597.68  33.2945  1  3.60263  0.599075  2.74186
 3598.43  33.2867  1.0  3.60465  0.599339  2.7387
 3599.18  33.2788  1  3.60649  0.599554  2.73604
 3599.93  33.271  1.0  3.60821  0.599567  2.73361
 3600.68  33.2632  1  3.60937  0.599747  2.73097
 3601.43  33.2554  1.0  3.61037  0.599831  2.72822
 3602.18  33.2475  1  3.61043  0.599845  2.72598
 3602.93  33.2397  1.0  3.60943  0.599843  2.72342
 3603.68  33.2319  1  3.60696  0.599774  2.72099
 3604.43  33.2241  1.0  3.60301  0.599668  2.71953
 3605.18  33.2163  1  3.5981  0.599435  2.71626
 3605.93  33.2085  1.0  3.59323  0.599254  2.71409
 3606.68  33.2007  1  3.58901  0.599108  2.71262
 3607.43  33.1929  1.0  3.59356  0.600204  2.71488
 3608.18  33.1851  1  3.59097  0.600141  2.71263
 3608.93  33.1773  1.0  3.58967  0.60012  2.71093
 3609.68  33.1695  1  3.58873  0.600253  2.70889
 3610.43  33.1617  1.0  3.58798  0.600252  2.70684
 3611.18  33.154  1  3.58743  0.600362  2.70477
 3611.93  33.1462  1.0  3.58401  0.596984  2.68078
 3612.68  33.1384  1  3.58275  0.60009  2.69889
 3613.43  33.1307  1.0  3.57954  0.599949  2.69621
 3614.18  33.1229  1  3.57557  0.599844  2.69413
 3614.93  33.1152  1.0  3.5709  0.599691  2.69124
 3615.68  33.1074  1  3.56545  0.599428  2.69003
 3616.43  33.0997  1.0  3.55887  0.598108  2.67994
 3617.18  33.0919  1  3.55253  0.596724  2.66928
 3617.93  33.0842  1.0  3.54858  0.598547  2.68109
 3618.68  33.0764  1  3.54573  0.598382  2.67849
 3619.43  33.0687  1.0  3.54493  0.598614  2.67702
 3620.18  33.061  1  3.54614  0.598691  2.67497
 3620.93  33.0533  1.0  3.54926  0.598992  2.67294
 3621.68  33.0455  1  3.55331  0.599313  2.67058
 3622.43  33.0378  1.0  3.55625  0.596539  2.6471
 3623.18  33.0301  1  3.5616  0.599944  2.66497
 3623.93  33.0224  1.0  3.56513  0.600215  2.66281
 3624.68  33.0147  1  3.5682  0.600456  2.66015
 3625.43  33.007  1.0  3.57205  0.600825  2.65797
 3626.18  32.9993  1  3.57727  0.60121  2.65582
 3626.93  32.9916  1.0  3.58423  0.601656  2.65276
 3627.68  32.9839  1  3.59242  0.602367  2.65025
 3628.43  32.9762  1.0  3.60094  0.602978  2.64828
 3629.18  32.9685  1  3.6085  0.603499  2.64568
 3629.93  32.9609  1.0  3.61532  0.604081  2.6435
 3630.68  32.9532  1  3.62118  0.604408  2.64101
 3631.43  32.9455  1.0  3.62655  0.604886  2.6392
 3632.18  32.9379  1  3.63149  0.605355  2.63628
 3632.93  32.9302  1.0  3.63636  0.605728  2.63352
 3633.68  32.9225  1  3.64087  0.60609  2.63161
 3634.43  32.9149  1.0  3.64521  0.606508  2.62907
 3635.18  32.9072  1  3.6488  0.606819  2.62711
 3635.93  32.8996  1.0  3.65196  0.607153  2.62455
 3636.68  32.8919  1  3.655  0.607391  2.622
 3637.43  32.8843  1.0  3.65744  0.607751  2.61992
 3638.18  32.8767  1  3.65925  0.607926  2.61787
 3638.93  32.869  1.0  3.66095  0.60818  2.61592
 3639.68  32.8614  1  3.67049  0.60955  2.61777
 3640.43  32.8538  1.0  3.67076  0.608994  2.61034
 3641.18  32.8462  1  3.67109  0.60983  2.61242
 3641.93  32.8385  1.0  3.67106  0.609908  2.61037
 3642.68  32.8309  1  3.67079  0.610045  2.60798
 3643.43  32.8233  1.0  3.67079  0.610221  2.60534
 3644.18  32.8157  1  3.67105  0.610356  2.60289
 3644.93  32.8081  1.0  3.67134  0.610459  2.6006
 3645.68  32.8005  1  3.67213  0.610613  2.59843
 3646.43  32.7929  1.0  3.67347  0.610849  2.5964
 3647.18  32.7853  1  3.67544  0.611146  2.59362
 3647.93  32.7777  1.0  3.67849  0.611424  2.59097
 3648.68  32.7702  1  3.68258  0.611822  2.58884
 3649.43  32.7626  1.0  3.6879  0.611704  2.58232
 3650.18  32.755  1  3.69506  0.612892  2.58448
 3650.93  32.7474  1.0  3.70298  0.61356  2.58227
 3651.68  32.7399  1  3.71136  0.614293  2.58007
 3652.43  32.7323  1.0  3.71987  0.614953  2.5777
 3653.18  32.7247  1  3.72816  0.615596  2.57575
 3653.93  32.7172  1.0  3.73623  0.616362  2.57295
 3654.68  32.7096  1  3.74336  0.617012  2.5708
 3655.43  32.7021  1.0  3.74985  0.617578  2.56848
 3656.18  32.6945  1  3.75536  0.617536  2.5614
 3656.93  32.687  1.0  3.76024  0.618617  2.56465
 3657.68  32.6795  1  3.76422  0.619021  2.56172
 3677.93  32.4773  1.0  3.82126  0.622943  2.46838
 3707.92  32.1828  1  3.98497  0.65671  2.47085
 3737.92  31.8938  1.0  4.11636  0.684084  2.42291
 3767.92  31.6104  1  4.25825  0.714683  2.36575
 3797.92  31.3323  1.0  4.41722  0.750123  2.30499
 3827.92  31.0593  1  4.56045  0.789258  2.25217
 3857.92  30.7914  1.0  4.68927  0.828292  2.18294
 3887.91  30.5283  1  4.84232  0.873723  2.10859
 3917.91  30.2699  1.0  4.98919  0.921897  2.02833
 3947.91  30.0162  1  5.12129  0.972142  1.94365
 3977.91  29.7669  1.0  5.26019  1.0269  1.85093
 4007.91  29.5219  1  5.4019  1.086  1.75187
 4037.91  29.2811  1.0  5.52012  1.13932  1.59812
 4067.91  29.0445  1  5.6533  1.21005  1.53004
 4097.9  28.8118  1.0  5.77691  1.27978  1.42888
 4127.9  28.5831  1  5.89534  1.35195  1.31678
 4157.9  28.3581  1.0  6.02003  1.43239  1.22471
 4187.9  28.1368  1  6.15831  1.52125  1.13766
 4217.9  27.9191  1.0  6.1859  1.58807  1.04203
 4247.89  27.7049  1  6.40336  1.70539  0.951049
 4277.89  27.4941  1.0  6.51015  1.80146  0.865297
 4307.89  27.2867  1  6.62406  1.90519  0.790868
 4337.89  27.0825  1.0  6.73961  2.01573  0.732699
 4367.89  26.8814  1  6.84161  2.12584  0.666565
 4397.89  26.6835  1.0  6.94455  2.24198  0.611524
 4427.88  26.4886  1  7.03914  2.35896  0.552132
 4457.88  26.2966  1.0  7.1369  2.48721  0.525852
 4487.88  26.1075  1  7.18902  2.61813  0.49506
 4517.88  25.9212  1.0  7.18793  2.74969  0.466987
 4547.88  25.7376  1  7.18718  2.88465  0.446341
 4577.88  25.5568  1.0  7.18667  3.02121  0.424684
 4607.87  25.3786  1  7.18645  3.15955  0.412705
 4637.87  25.2029  1.0  7.18664  3.25566  0.404677
 4667.87  25.0297  1  7.18625  3.44694  0.415043
 4697.87  24.859  1.0  7.18626  3.599  0.428539
 4727.87  24.6907  1  7.18618  3.75002  0.444869
 4757.87  24.5247  1.0  7.1862  3.90368  0.467916
 4787.86  24.361  1  7.18622  4.05629  0.495199
 4817.86  24.1996  1.0  7.18622  4.20854  0.533293
 4837.86  24.0932  1.0  7.1862  4.31708  0.566132