Folder: xdiProc (part 4)

File: MEX1_29695_processed.xdi
# XDI/1.0
# Mono.d_spacing: 3.13897
# Reference.Element: Cu
# ROI.start_bin: nan
# ROI.end_bin: nan
# Element.symbol: None
# Element.edge: None
# Processing.version: spec_processing_library v0.3.5
# Column.1: energy
# Column.2: bragg
# Column.3: count_time seconds
# Column.4: i0
# Column.5: i1
# Column.6: i2
# Describe.Column.1: energy - MEX1ES01ZEB01:CALC_ENERGY_EV
# Describe.Column.2: bragg - MEX1ES01ZEB01:BRAGG_WITH_OFFSET
# Describe.Column.3: count_time - MEX1ES01ZEB01:GATE_TIME_SET
# Describe.Column.4: i0 - MEX1ES01DAQ01:ch1:S:MeanValue_RBV
# Describe.Column.5: i1 - MEX1ES01DAQ01:ch2:S:MeanValue_RBV
# Describe.Column.6: i2 - MEX1ES01DAQ01:ch3:S:MeanValue_RBV
# Samples: [417, 417, 417, 417, 417, 417]
# ///
# Cu foil
#
# xdi from default mda2xdi preset for mex1.
#--------
#  energy   bragg   count_time   i0   i1   i2
 8778.49  13.0013  1.0  3.29168  2.55069  2.66804
 8808.51  12.9562  1  3.27035  2.54075  2.6751
 8838.51  12.9115  1.0  3.24973  2.53116  2.68212
 8868.5  12.867  1  3.22914  2.52147  2.68833
 8898.5  12.8229  1.0  3.20824  2.51136  2.69312
 8928.5  12.7791  1  3.19078  2.5039  2.69718
 8958.49  12.7356  1.0  3.16608  2.49041  2.67949
 8959.23  12.7345  1  3.16064  2.48637  2.67436
 8959.98  12.7334  1.0  3.15993  2.48599  2.67303
 8960.73  12.7324  1  3.16522  2.49023  2.67661
 8961.48  12.7313  1.0  3.16543  2.49061  2.67596
 8962.23  12.7302  1  3.16514  2.49046  2.67458
 8962.98  12.7291  1.0  3.16448  2.49011  2.67278
 8963.73  12.728  1  3.16385  2.4897  2.67079
 8964.48  12.727  1.0  3.16323  2.4894  2.66878
 8965.23  12.7259  1  3.1621  2.48857  2.66605
 8965.98  12.7248  1.0  3.15738  2.48512  2.66023
 8966.73  12.7237  1  3.15354  2.48218  2.65465
 8967.48  12.7226  1.0  3.15661  2.48479  2.65472
 8968.23  12.7215  1  3.15905  2.48683  2.65387
 8968.98  12.7205  1.0  3.15864  2.4867  2.65023
 8969.73  12.7194  1  3.15807  2.48639  2.64595
 8970.48  12.7183  1.0  3.15756  2.48606  2.64094
 8971.23  12.7172  1  3.15693  2.48576  2.63515
 8971.98  12.7161  1.0  3.15628  2.48527  2.62834
 8972.73  12.7151  1  3.15553  2.48495  2.62041
 8973.48  12.714  1.0  3.15476  2.48453  2.61051
 8974.23  12.7129  1  3.15427  2.4842  2.59892
 8974.98  12.7118  1.0  3.15351  2.48385  2.58395
 8975.73  12.7107  1  3.15282  2.48333  2.56432
 8976.48  12.7097  1.0  3.15197  2.4829  2.53743
 8977.23  12.7086  1  3.15135  2.48247  2.49878
 8977.98  12.7075  1.0  3.15052  2.48209  2.4384
 8978.73  12.7064  1  3.14967  2.48155  2.33185
 8979.48  12.7053  1.0  3.14883  2.48106  2.12158
 8980.23  12.7043  1  3.14806  2.4806  1.7515
 8980.98  12.7032  1.0  3.14705  2.47993  1.35496
 8981.73  12.7021  1  3.14609  2.47939  1.14343
 8982.48  12.701  1.0  3.14549  2.47909  1.08236
 8983.23  12.6999  1  3.14482  2.47866  1.09303
 8983.98  12.6989  1.0  3.15148  2.48404  1.12858
 8984.73  12.6978  1  3.1507  2.48359  1.13414
 8985.48  12.6967  1.0  3.14988  2.48303  1.0922
 8986.23  12.6956  1  3.1493  2.48276  1.02948
 8986.98  12.6946  1.0  3.14857  2.48239  0.975016
 8987.73  12.6935  1  3.14787  2.48191  0.924792
 8988.48  12.6924  1.0  3.147  2.4814  0.867178
 8989.23  12.6913  1  3.14627  2.48096  0.798874
 8989.98  12.6903  1.0  3.14549  2.48054  0.72224
 8990.73  12.6892  1  3.14484  2.48004  0.641897
 8991.48  12.6881  1.0  3.14399  2.47963  0.564218
 8992.23  12.687  1  3.1431  2.47909  0.497058
 8992.98  12.6859  1.0  3.14251  2.47869  0.443444
 8993.73  12.6849  1  3.14173  2.47828  0.404921
 8994.48  12.6838  1.0  3.14091  2.47773  0.383515
 8995.23  12.6827  1  3.14003  2.47717  0.379939
 8995.98  12.6817  1.0  3.13913  2.47665  0.390372
 8996.73  12.6806  1  3.13835  2.47609  0.408474
 8997.48  12.6795  1.0  3.13726  2.47533  0.428647
 8998.23  12.6784  1  3.13614  2.47476  0.447037
 8998.98  12.6774  1.0  3.13473  2.47378  0.460027
 8999.73  12.6763  1  3.13283  2.47234  0.464608
 9000.48  12.6752  1.0  3.12856  2.46916  0.458459
 9001.23  12.6741  1  3.10846  2.45342  0.439569
 9001.98  12.6731  1.0  3.07031  2.42359  0.410663
 9002.73  12.672  1  3.10507  2.45107  0.389962
 9003.48  12.6709  1.0  3.12854  2.46977  0.373865
 9004.23  12.6698  1  3.12683  2.46852  0.366596
 9004.98  12.6688  1.0  3.11458  2.45904  0.371045
 9005.73  12.6677  1  3.07191  2.42541  0.380712
 9006.48  12.6666  1.0  3.07102  2.42484  0.399292
 9007.23  12.6655  1  3.06337  2.41911  0.416104
 9007.98  12.6645  1.0  3.09347  2.44287  0.4352
 9008.73  12.6634  1  3.1265  2.46918  0.452297
 9009.48  12.6623  1.0  3.12746  2.47001  0.464637
 9010.23  12.6613  1  3.12076  2.46498  0.476429
 9010.98  12.6602  1.0  3.09002  2.44072  0.483383
 9011.73  12.6591  1  3.07589  2.42966  0.489359
 9012.47  12.6581  1.0  3.11386  2.45983  0.49912
 9013.23  12.657  1  3.1274  2.47069  0.501079
 9013.98  12.6559  1.0  3.1272  2.47071  0.498542
 9014.73  12.6548  1  3.12642  2.47019  0.494683
 9015.48  12.6538  1.0  3.13312  2.47557  0.490948
 9016.23  12.6527  1  3.13206  2.47489  0.484672
 9016.98  12.6516  1.0  3.13145  2.47463  0.476822
 9017.72  12.6506  1  3.13069  2.47411  0.467357
 9018.48  12.6495  1.0  3.13001  2.47373  0.456739
 9019.23  12.6484  1  3.12916  2.47319  0.44544
 9019.97  12.6474  1.0  3.12854  2.47288  0.434448
 9020.73  12.6463  1  3.12773  2.47242  0.424179
 9021.48  12.6452  1.0  3.12707  2.47192  0.414608
 9022.23  12.6441  1  3.12624  2.47162  0.405587
 9022.97  12.6431  1.0  3.12548  2.47101  0.396932
 9023.72  12.642  1  3.12493  2.47078  0.3886
 9024.47  12.6409  1.0  3.12419  2.47028  0.381001
 9025.22  12.6399  1  3.1236  2.46999  0.37476
 9025.97  12.6388  1.0  3.12278  2.46949  0.370418
 9026.72  12.6377  1  3.12213  2.46915  0.368724
 9027.47  12.6367  1.0  3.1215  2.46878  0.370033
 9028.22  12.6356  1  3.12085  2.46839  0.374362
 9048.47  12.6069  4.0  3.10681  2.46115  0.448545
 9078.47  12.5645  4  3.08537  2.44979  0.390417
 9108.47  12.5225  4.0  3.0656  2.43961  0.456275
 9138.46  12.4807  4  3.04472  2.42839  0.379581
 9168.46  12.4392  4.0  2.99461  2.39363  0.476571
 9198.46  12.398  4  3.00768  2.4094  0.459117
 9228.45  12.3571  4.0  2.98733  2.39821  0.464015
 9258.45  12.3164  4  2.96986  2.38927  0.495334
 9288.44  12.276  4.0  2.9518  2.37966  0.475232
 9318.44  12.2359  4  2.93524  2.37121  0.501496
 9348.44  12.196  4.0  2.91531  2.35991  0.52458
 9378.43  12.1564  4  2.89573  2.34874  0.51824
 9408.43  12.1171  4.0  2.87633  2.33763  0.523457
 9438.43  12.078  4  2.85614  2.32579  0.541289
 9468.42  12.0391  4.0  2.83749  2.31505  0.55528
 9498.42  12.0005  4  2.8182  2.30373  0.557184
 9528.42  11.9622  4.0  2.79894  2.29229  0.566231
 9558.41  11.9241  4  2.77967  2.28072  0.578339
 9588.41  11.8863  4.0  2.76047  2.26916  0.588581
 9618.4  11.8487  4  2.74133  2.25749  0.594824
 9648.4  11.8113  4.0  2.72165  2.24528  0.601157
 9678.4  11.7742  4  2.70175  2.2328  0.610545
 9708.39  11.7373  4.0  2.67334  2.21317  0.617361
 9738.39  11.7006  4  2.66412  2.20934  0.627731
 9768.39  11.6642  4.0  2.6488  2.20036  0.634822
 9798.38  11.628  4  2.63463  2.19227  0.643353
 9828.38  11.592  4.0  2.60817  2.17383  0.649335
 9858.37  11.5562  4  2.59633  2.16752  0.658819
 9888.37  11.5207  4.0  2.5779  2.15564  0.666059
 9918.36  11.4854  4  2.55957  2.14373  0.672709
 9948.36  11.4503  4.0  2.52226  2.11581  0.674475
 9978.36  11.4154  4  2.46758  2.07318  0.671188
 10008.4  11.3807  4.0  2.50669  2.1093  0.693523
 10038.3  11.3462  4  2.48884  2.09745  0.700089
 10068.3  11.312  4.0  2.47456  2.08856  0.707277
 10098.3  11.278  4  2.45659  2.07648  0.713289
 10128.3  11.2441  4.0  2.43834  2.06404  0.71926
 10158.3  11.2105  4  2.4205  2.05185  0.725043
 10188.3  11.1771  4.0  2.40252  2.03955  0.73082
 10208.3  11.1549  4.0  2.3896  2.0305  0.73439

File: MEX1_29696_processed.xdi
# XDI/1.0
# Mono.d_spacing: 3.13897
# Reference.Element: Ni
# ROI.start_bin: nan
# ROI.end_bin: nan
# Element.symbol: None
# Element.edge: None
# Processing.version: spec_processing_library v0.3.5
# Column.1: energy
# Column.2: bragg
# Column.3: count_time seconds
# Column.4: i0
# Column.5: i1
# Column.6: i2
# Describe.Column.1: energy - MEX1ES01ZEB01:CALC_ENERGY_EV
# Describe.Column.2: bragg - MEX1ES01ZEB01:BRAGG_WITH_OFFSET
# Describe.Column.3: count_time - MEX1ES01ZEB01:GATE_TIME_SET
# Describe.Column.4: i0 - MEX1ES01DAQ01:ch1:S:MeanValue_RBV
# Describe.Column.5: i1 - MEX1ES01DAQ01:ch2:S:MeanValue_RBV
# Describe.Column.6: i2 - MEX1ES01DAQ01:ch3:S:MeanValue_RBV
# Samples: [417, 417, 417, 417, 417, 417]
# ///
# Ni foil
#
# xdi from default mda2xdi preset for mex1.
#--------
#  energy   bragg   count_time   i0   i1   i2
 8132.57  14.0543  1.0  3.76643  2.73261  2.46504
 8162.58  14.0016  1  3.74164  2.72414  2.47812
 8192.57  13.9493  1.0  3.71762  2.71609  2.49291
 8222.57  13.8973  1  3.69362  2.70783  2.50673
 8252.57  13.8458  1.0  3.67016  2.69972  2.51857
 8282.56  13.7947  1  3.64564  2.69069  2.52567
 8312.56  13.7439  1.0  3.63054  2.68839  2.52484
 8313.31  13.7427  1  3.62981  2.68801  2.52375
 8314.06  13.7414  1.0  3.62918  2.68775  2.52264
 8314.81  13.7401  1  3.62812  2.68723  2.52118
 8315.56  13.7389  1.0  3.62759  2.68697  2.51963
 8316.31  13.7376  1  3.62673  2.68659  2.51795
 8317.06  13.7363  1.0  3.62603  2.68632  2.51624
 8317.81  13.7351  1  3.62513  2.68584  2.51419
 8318.56  13.7338  1.0  3.62442  2.68553  2.51195
 8319.31  13.7326  1  3.62364  2.68527  2.50943
 8320.06  13.7313  1.0  3.62288  2.68491  2.50664
 8320.81  13.73  1  3.62216  2.68454  2.50351
 8321.55  13.7288  1.0  3.62138  2.68421  2.4999
 8322.31  13.7275  1  3.62055  2.68386  2.49568
 8323.06  13.7262  1.0  3.61994  2.68351  2.49101
 8323.81  13.725  1  3.61906  2.6831  2.4853
 8324.56  13.7237  1.0  3.61832  2.6827  2.47852
 8325.3  13.7225  1  3.6175  2.68229  2.47021
 8326.05  13.7212  1.0  3.61681  2.68205  2.45981
 8326.81  13.7199  1  3.61607  2.68172  2.44645
 8327.55  13.7187  1.0  3.61513  2.68131  2.4281
 8328.3  13.7174  1  3.61449  2.68094  2.40153
 8329.05  13.7162  1.0  3.61368  2.68065  2.35829
 8329.8  13.7149  1  3.61298  2.6803  2.27627
 8330.55  13.7136  1.0  3.61212  2.67994  2.11185
 8331.3  13.7124  1  3.61126  2.67941  1.86812
 8332.05  13.7111  1.0  3.61046  2.67903  1.62939
 8332.8  13.7099  1  3.60957  2.67863  1.44454
 8333.55  13.7086  1.0  3.60872  2.67818  1.31558
 8334.3  13.7074  1  3.60787  2.67782  1.2361
 8335.05  13.7061  1.0  3.60714  2.67757  1.18774
 8335.8  13.7048  1  3.60627  2.67716  1.15196
 8336.55  13.7036  1.0  3.60547  2.6768  1.11015
 8337.3  13.7023  1  3.60472  2.67633  1.053
 8338.05  13.7011  1.0  3.60384  2.67595  0.992541
 8338.8  13.6998  1  3.60306  2.67559  0.941781
 8339.55  13.6986  1.0  3.60223  2.67514  0.897767
 8340.3  13.6973  1  3.60147  2.67478  0.851191
 8341.05  13.696  1.0  3.6006  2.67438  0.795735
 8341.8  13.6948  1  3.59978  2.67401  0.731149
 8342.55  13.6935  1.0  3.59898  2.67354  0.661394
 8343.3  13.6923  1  3.60693  2.67971  0.5934
 8344.05  13.691  1.0  3.60597  2.67923  0.527427
 8344.8  13.6898  1  3.60528  2.679  0.467967
 8345.55  13.6885  1.0  3.60449  2.67859  0.417692
 8346.3  13.6873  1  3.60362  2.67811  0.379785
 8347.05  13.686  1.0  3.60293  2.67788  0.355899
 8347.8  13.6848  1  3.60214  2.67744  0.34412
 8348.55  13.6835  1.0  3.60109  2.67692  0.34056
 8349.3  13.6823  1  3.6004  2.6766  0.342603
 8350.05  13.681  1.0  3.59957  2.67618  0.34801
 8350.8  13.6797  1  3.59881  2.67585  0.354927
 8351.55  13.6785  1.0  3.59791  2.6754  0.360908
 8352.3  13.6772  1  3.59726  2.67508  0.36349
 8353.05  13.676  1.0  3.59639  2.67469  0.36036
 8353.8  13.6747  1  3.59569  2.67438  0.351138
 8354.55  13.6735  1.0  3.59499  2.67406  0.33771
 8355.3  13.6722  1  3.59422  2.67372  0.324163
 8356.05  13.671  1.0  3.59346  2.67331  0.314515
 8356.8  13.6697  1  3.59269  2.67297  0.310925
 8357.55  13.6685  1.0  3.59219  2.6728  0.312873
 8358.3  13.6672  1  3.59133  2.67246  0.318314
 8359.05  13.666  1.0  3.59048  2.67198  0.324842
 8359.8  13.6647  1  3.58978  2.67175  0.330774
 8360.55  13.6635  1.0  3.58915  2.6714  0.335787
 8361.3  13.6622  1  3.58822  2.67097  0.340754
 8362.05  13.661  1.0  3.58767  2.67077  0.346883
 8362.8  13.6597  1  3.58688  2.67043  0.354351
 8363.55  13.6585  1.0  3.58604  2.67  0.362227
 8364.3  13.6572  1  3.58548  2.66966  0.369042
 8365.05  13.656  1.0  3.5846  2.66938  0.373942
 8365.8  13.6547  1  3.58385  2.66896  0.377139
 8366.55  13.6535  1.0  3.58309  2.66868  0.379327
 8367.3  13.6523  1  3.58235  2.66826  0.380922
 8368.05  13.651  1.0  3.5817  2.66796  0.382034
 8368.8  13.6498  1  3.58072  2.66755  0.382145
 8369.55  13.6485  1.0  3.58  2.66716  0.380905
 8370.3  13.6473  1  3.57931  2.66686  0.378098
 8371.05  13.646  1.0  3.57853  2.66652  0.37372
 8371.8  13.6448  1  3.57777  2.6662  0.367847
 8372.55  13.6435  1.0  3.57694  2.66577  0.360934
 8373.3  13.6423  1  3.57626  2.66546  0.353232
 8374.05  13.641  1.0  3.57547  2.66504  0.345052
 8374.8  13.6398  1  3.57465  2.66462  0.336544
 8375.55  13.6385  1.0  3.57406  2.66445  0.327878
 8376.3  13.6373  1  3.57333  2.66409  0.31913
 8377.05  13.6361  1.0  3.5726  2.66381  0.310568
 8377.8  13.6348  1  3.5803  2.66977  0.303202
 8378.55  13.6336  1.0  3.57956  2.66945  0.296031
 8379.3  13.6323  1  3.57888  2.66905  0.290164
 8380.05  13.6311  1.0  3.57801  2.66871  0.286022
 8380.8  13.6298  1  3.5773  2.66834  0.283852
 8381.55  13.6286  1.0  3.57663  2.66805  0.283659
 8382.3  13.6274  1  3.57574  2.66754  0.285252
 8402.55  13.5939  1.0  3.55993  2.66155  0.388031
 8432.55  13.5446  1  3.53722  2.65264  0.286772
 8462.55  13.4957  1.0  3.51414  2.64345  0.416992
 8492.54  13.4471  1  3.49125  2.63413  0.303411
 8522.54  13.3989  1.0  3.46824  2.62444  0.458793
 8552.54  13.351  1  3.44467  2.61433  0.383743
 8582.53  13.3035  1.0  3.40253  2.58985  0.345609
 8612.53  13.2563  1  3.04555  2.32464  0.390894
 8642.53  13.2095  1.0  3.38519  2.59123  0.422058
 8672.52  13.163  1  3.36502  2.58294  0.406158
 8702.52  13.1168  1.0  3.34254  2.57262  0.442866
 8732.52  13.0709  1  3.32041  2.56251  0.466816
 8762.51  13.0254  1.0  3.29887  2.55262  0.457089
 8792.51  12.9802  1  3.27737  2.54259  0.47212
 8822.51  12.9353  1.0  3.25613  2.53269  0.485749
 8852.5  12.8907  1  3.2351  2.52267  0.504889
 8882.5  12.8464  1.0  3.21394  2.51247  0.502787
 8912.5  12.8024  1  3.19048  2.5003  0.513198
 8942.49  12.7588  1.0  3.1738  2.49324  0.527955
 8972.49  12.7154  1  3.15213  2.48229  0.540226
 9002.49  12.6723  1.0  3.08935  2.43866  0.540615
 9032.48  12.6295  1  3.11157  2.46195  0.553229
 9062.48  12.5871  1.0  3.08814  2.44904  0.564309
 9092.48  12.5449  1  3.07011  2.44027  0.575801
 9122.47  12.5029  1.0  3.05013  2.42983  0.586606
 9152.47  12.4613  1  3.02434  2.41461  0.592458
 9182.46  12.4199  1.0  3.01312  2.41096  0.602554
 9212.46  12.3789  1  2.99208  2.3993  0.610759
 9242.46  12.338  1.0  2.97181  2.38811  0.62095
 9272.45  12.2975  1  2.9515  2.3768  0.630305
 9302.45  12.2572  1.0  2.93395  2.3676  0.638545
 9332.45  12.2172  1  2.9134  2.35575  0.645864
 9362.44  12.1775  1.0  2.89406  2.34486  0.654231
 9392.44  12.138  1  2.87458  2.33369  0.662471
 9422.43  12.0988  1.0  2.86108  2.32744  0.672451
 9452.43  12.0598  1  2.84159  2.31605  0.680931
 9482.43  12.0211  1.0  2.82225  2.30474  0.68854
 9512.42  11.9826  1  2.80279  2.29317  0.696186
 9542.42  11.9444  1.0  2.78371  2.28177  0.704123
 9562.42  11.919  1.0  2.77093  2.27414  0.709409

File: MEX1_29697_processed.xdi
# XDI/1.0
# Mono.d_spacing: 3.13897
# Reference.Element: Co
# ROI.start_bin: nan
# ROI.end_bin: nan
# Element.symbol: None
# Element.edge: None
# Processing.version: spec_processing_library v0.3.5
# Column.1: energy
# Column.2: bragg
# Column.3: count_time seconds
# Column.4: i0
# Column.5: i1
# Column.6: i2
# Describe.Column.1: energy - MEX1ES01ZEB01:CALC_ENERGY_EV
# Describe.Column.2: bragg - MEX1ES01ZEB01:BRAGG_WITH_OFFSET
# Describe.Column.3: count_time - MEX1ES01ZEB01:GATE_TIME_SET
# Describe.Column.4: i0 - MEX1ES01DAQ01:ch1:S:MeanValue_RBV
# Describe.Column.5: i1 - MEX1ES01DAQ01:ch2:S:MeanValue_RBV
# Describe.Column.6: i2 - MEX1ES01DAQ01:ch3:S:MeanValue_RBV
# Samples: [417, 417, 417, 417, 417, 417]
# ///
# Co foil
#
# xdi from default mda2xdi preset for mex1.
#--------
#  energy   bragg   count_time   i0   i1   i2
 7508.63  15.2493  1  4.29672  2.85584  2.40164
 7538.64  15.1872  1.0  4.27046  2.8524  2.4235
 7568.64  15.1255  1  4.24489  2.84897  2.44522
 7598.63  15.0644  1.0  4.22017  2.84585  2.46668
 7628.63  15.0038  1  4.19318  2.84083  2.48565
 7658.63  14.9436  1.0  4.1675  2.83647  2.50247
 7688.62  14.884  1  4.14058  2.83093  2.50644
 7689.37  14.8825  1.0  4.13963  2.83058  2.50579
 7690.12  14.881  1  4.13893  2.83037  2.50515
 7690.87  14.8795  1.0  4.13793  2.83002  2.50439
 7691.62  14.8781  1  4.13692  2.82962  2.50335
 7692.37  14.8766  1.0  4.13603  2.82935  2.50243
 7693.12  14.8751  1  4.13498  2.82897  2.50115
 7693.87  14.8736  1.0  4.13413  2.82869  2.50005
 7694.62  14.8721  1  4.13314  2.82833  2.4986
 7695.37  14.8706  1.0  4.13234  2.82811  2.4971
 7696.12  14.8692  1  4.13138  2.82773  2.49534
 7696.87  14.8677  1.0  4.13014  2.8272  2.49328
 7697.62  14.8662  1  4.12924  2.82692  2.49091
 7698.37  14.8647  1.0  4.13647  2.83225  2.4934
 7699.12  14.8632  1  4.13698  2.83278  2.49125
 7699.87  14.8617  1.0  4.13555  2.83216  2.48757
 7700.62  14.8603  1  4.134  2.8314  2.48317
 7701.37  14.8588  1.0  4.13225  2.83058  2.47794
 7702.12  14.8573  1  4.12887  2.82854  2.47082
 7702.87  14.8558  1.0  4.11766  2.82114  2.45772
 7703.62  14.8543  1  4.05089  2.77571  2.4098
 7704.37  14.8529  1.0  4.06406  2.78504  2.40683
 7705.12  14.8514  1  4.13134  2.83148  2.43163
 7705.87  14.8499  1.0  4.13158  2.83197  2.40929
 7706.62  14.8484  1  4.13019  2.83136  2.37166
 7707.37  14.847  1.0  4.12847  2.83043  2.29905
 7708.12  14.8455  1  4.1268  2.82968  2.14024
 7708.87  14.844  1.0  4.12468  2.82852  1.88185
 7709.62  14.8425  1  4.12209  2.82705  1.64745
 7710.37  14.841  1.0  4.11751  2.82427  1.47541
 7711.12  14.8396  1  4.09707  2.81047  1.3479
 7711.87  14.8381  1.0  4.02188  2.75928  1.24771
 7712.62  14.8366  1  4.07684  2.79733  1.22635
 7713.37  14.8351  1.0  4.11343  2.82269  1.22727
 7714.12  14.8337  1  4.0614  2.78728  1.20424
 7714.87  14.8322  1.0  4.04005  2.7729  1.1604
 7715.62  14.8307  1  4.11565  2.82515  1.10805
 7716.37  14.8292  1.0  4.12377  2.83103  1.0211
 7717.12  14.8278  1  4.12222  2.8303  0.933325
 7717.87  14.8263  1.0  4.12045  2.8294  0.849832
 7718.62  14.8248  1  4.11897  2.82864  0.77414
 7719.37  14.8233  1.0  4.11702  2.8277  0.711958
 7720.12  14.8219  1  4.11486  2.82652  0.66339
 7720.87  14.8204  1.0  4.11162  2.82454  0.622366
 7721.62  14.8189  1  4.10077  2.81744  0.580797
 7722.37  14.8175  1.0  4.04101  2.77671  0.530818
 7723.12  14.816  1  4.0439  2.779  0.489173
 7723.87  14.8145  1.0  4.11116  2.82552  0.461546
 7724.62  14.813  1  4.11414  2.82795  0.43591
 7725.37  14.8116  1.0  4.11303  2.8274  0.418484
 7726.12  14.8101  1  4.11179  2.82689  0.406823
 7726.87  14.8086  1.0  4.11089  2.82662  0.398713
 7727.62  14.8072  1  4.10966  2.82609  0.393067
 7728.37  14.8057  1.0  4.10872  2.8257  0.389438
 7729.12  14.8042  1  4.10782  2.82541  0.387503
 7729.87  14.8027  1.0  4.10683  2.82504  0.385582
 7730.62  14.8013  1  4.10596  2.82475  0.382041
 7731.37  14.7998  1.0  4.10496  2.82433  0.375989
 7732.12  14.7983  1  4.10396  2.824  0.368371
 7732.87  14.7969  1.0  4.10315  2.82374  0.361689
 7733.62  14.7954  1  4.11155  2.82987  0.359278
 7734.37  14.7939  1.0  4.11059  2.82947  0.360571
 7735.12  14.7925  1  4.10967  2.82914  0.365682
 7735.87  14.791  1.0  4.10889  2.82888  0.373028
 7736.62  14.7895  1  4.108  2.82856  0.380895
 7737.37  14.7881  1.0  4.10697  2.82817  0.387871
 7738.12  14.7866  1  4.10595  2.82782  0.393372
 7738.87  14.7851  1.0  4.10518  2.82763  0.397674
 7739.62  14.7837  1  4.10424  2.82726  0.401484
 7740.37  14.7822  1.0  4.10336  2.82692  0.404952
 7741.12  14.7807  1  4.1025  2.82664  0.407949
 7741.87  14.7793  1.0  4.10162  2.82639  0.410429
 7742.62  14.7778  1  4.10055  2.82591  0.412788
 7743.37  14.7764  1.0  4.09973  2.82573  0.415163
 7744.12  14.7749  1  4.09887  2.8254  0.41737
 7744.87  14.7734  1.0  4.09792  2.82508  0.418843
 7745.62  14.772  1  4.09709  2.82481  0.419015
 7746.37  14.7705  1.0  4.09613  2.82451  0.417532
 7747.12  14.769  1  4.0954  2.82429  0.414286
 7747.87  14.7676  1.0  4.09443  2.82389  0.40942
 7748.62  14.7661  1  4.09361  2.82358  0.403239
 7749.37  14.7647  1.0  4.09287  2.82336  0.396115
 7750.12  14.7632  1  4.09179  2.82302  0.388174
 7750.87  14.7617  1.0  4.09092  2.8227  0.379722
 7751.62  14.7603  1  4.09016  2.82251  0.37096
 7752.37  14.7588  1.0  4.08922  2.82213  0.362292
 7753.12  14.7574  1  4.08839  2.82188  0.353906
 7753.87  14.7559  1.0  4.08748  2.82149  0.346077
 7754.62  14.7544  1  4.08663  2.82129  0.3391
 7755.37  14.753  1.0  4.08567  2.82093  0.333197
 7756.12  14.7515  1  4.08495  2.82069  0.328597
 7756.87  14.7501  1.0  4.08404  2.82036  0.325419
 7757.62  14.7486  1  4.08309  2.82008  0.323778
 7758.37  14.7471  1.0  4.08218  2.8197  0.323543
 7778.62  14.7079  1  4.0644  2.81565  0.448765
 7808.61  14.6501  1.0  4.03814  2.80932  0.325719
 7838.61  14.5928  1  3.98412  2.78327  0.459696
 7868.61  14.5359  1.0  3.98559  2.79586  0.36343
 7898.6  14.4795  1  3.95987  2.78907  0.501581
 7928.6  14.4236  1.0  3.93288  2.78112  0.454123
 7958.6  14.368  1  3.90832  2.77463  0.414711
 7988.59  14.3129  1.0  3.89213  2.77391  0.500986
 8018.59  14.2582  1  3.86619  2.7659  0.495616
 8048.59  14.204  1.0  3.83951  2.7571  0.483452
 8078.58  14.1501  1  3.80342  2.74134  0.520066
 8108.58  14.0967  1.0  3.7923  2.74326  0.547727
 8138.58  14.0437  1  3.76648  2.73441  0.54063
 8168.57  13.9911  1.0  3.74113  2.72563  0.556687
 8198.57  13.9388  1  3.71599  2.71671  0.574813
 8228.57  13.887  1.0  3.69125  2.70788  0.595405
 8258.56  13.8356  1  3.66685  2.6991  0.595098
 8288.56  13.7845  1.0  3.64205  2.68981  0.608391
 8318.56  13.7338  1  3.61819  2.68099  0.625389
 8348.56  13.6835  1.0  3.59268  2.67068  0.639521
 8378.56  13.6336  1  3.56883  2.6614  0.649646
 8408.55  13.584  1.0  3.54495  2.65191  0.658044
 8438.55  13.5348  1  3.52126  2.64232  0.671316
 8468.55  13.4859  1.0  3.49749  2.63252  0.685101
 8498.54  13.4374  1  3.47409  2.62273  0.697942
 8528.54  13.3893  1.0  3.45028  2.61254  0.707712
 8558.54  13.3415  1  3.426  2.60174  0.718047
 8588.53  13.294  1.0  3.37085  2.56728  0.722271
 8618.53  13.2469  1  3.09095  2.36082  0.678105
 8648.53  13.2002  1.0  3.11704  2.38723  0.69883
 8678.52  13.1537  1  3.34551  2.56938  0.765324
 8708.52  13.1076  1.0  3.32229  2.55847  0.775456
 8738.52  13.0618  1  3.29992  2.54811  0.78603
 8768.51  13.0163  1.0  3.2778  2.53771  0.796899
 8798.51  12.9712  1  3.25594  2.52723  0.808061
 8828.51  12.9263  1.0  3.23423  2.5169  0.819005
 8858.5  12.8818  1  3.21241  2.50628  0.829215
 8888.5  12.8376  1.0  3.19064  2.49558  0.839395
 8918.5  12.7937  1  3.15835  2.47643  0.846969
 8938.49  12.7646  1  3.15653  2.47896  0.8573