Folder: xdiProc (part 2)

File: MEX1_29689_processed.xdi
# XDI/1.0
# Mono.d_spacing: 3.13897
# Reference.Element: Pb
# ROI.start_bin: nan
# ROI.end_bin: nan
# Element.symbol: None
# Element.edge: None
# Processing.version: spec_processing_library v0.3.5
# Column.1: energy
# Column.2: bragg
# Column.3: count_time seconds
# Column.4: i0
# Column.5: i1
# Column.6: i2
# Describe.Column.1: energy - MEX1ES01ZEB01:CALC_ENERGY_EV
# Describe.Column.2: bragg - MEX1ES01ZEB01:BRAGG_WITH_OFFSET
# Describe.Column.3: count_time - MEX1ES01ZEB01:GATE_TIME_SET
# Describe.Column.4: i0 - MEX1ES01DAQ01:ch1:S:MeanValue_RBV
# Describe.Column.5: i1 - MEX1ES01DAQ01:ch2:S:MeanValue_RBV
# Describe.Column.6: i2 - MEX1ES01DAQ01:ch3:S:MeanValue_RBV
# Samples: [417, 417, 417, 417, 417, 417]
# ///
# Pb foil
#
# xdi from default mda2xdi preset for mex1.
#--------
#  energy   bragg   count_time   i0   i1   i2
 12833.9  8.85202  1  2.38887  2.19803  3.81743
 12863.9  8.83119  1.0  2.36312  2.17565  3.80476
 12893.9  8.81048  1  2.34214  2.15734  3.79891
 12923.9  8.78987  1.0  2.31574  2.13428  3.7815
 12953.9  8.76936  1  2.28853  2.11035  3.75999
 12983.9  8.74894  1.0  2.27275  2.09675  3.74441
 13013.9  8.72862  1  2.24942  2.07638  3.66214
 13014.6  8.72813  1.0  2.25388  2.08059  3.66603
 13015.4  8.72762  1  2.25327  2.08009  3.66074
 13016.1  8.72712  1.0  2.25248  2.07935  3.65536
 13016.9  8.72661  1  2.25165  2.07865  3.64941
 13017.6  8.7261  1.0  2.25106  2.07811  3.64326
 13018.4  8.7256  1  2.25045  2.07745  3.63668
 13019.1  8.72509  1.0  2.24965  2.07674  3.62909
 13019.9  8.72458  1  2.24902  2.07617  3.6217
 13020.6  8.72408  1.0  2.24814  2.07554  3.61282
 13021.4  8.72357  1  2.24751  2.07508  3.6039
 13022.1  8.72306  1.0  2.24668  2.07428  3.59384
 13022.9  8.72256  1  2.24613  2.07372  3.58288
 13023.6  8.72205  1.0  2.2454  2.07317  3.57083
 13024.4  8.72154  1  2.24491  2.07261  3.55747
 13025.1  8.72104  1.0  2.24401  2.07186  3.54254
 13025.9  8.72053  1  2.24328  2.07127  3.52589
 13026.6  8.72003  1.0  2.24259  2.07057  3.50699
 13027.4  8.71952  1  2.24195  2.07007  3.48543
 13028.1  8.71902  1.0  2.24129  2.06946  3.46063
 13028.9  8.71851  1  2.24052  2.06873  3.43159
 13029.6  8.718  1.0  2.23987  2.06814  3.39771
 13030.4  8.7175  1  2.23923  2.06758  3.35732
 13031.1  8.71699  1.0  2.23845  2.06706  3.30816
 13031.9  8.71649  1  2.2377  2.06627  3.24944
 13032.6  8.71598  1.0  2.23712  2.06574  3.17969
 13033.4  8.71548  1  2.2364  2.0653  3.09911
 13034.1  8.71497  1.0  2.23559  2.06452  3.00795
 13034.9  8.71446  1  2.23484  2.06374  2.91019
 13035.6  8.71396  1.0  2.23396  2.06306  2.80989
 13036.4  8.71346  1  2.23367  2.06277  2.70947
 13037.1  8.71295  1.0  2.23282  2.06192  2.60755
 13037.9  8.71244  1  2.23202  2.06131  2.50448
 13038.6  8.71194  1.0  2.23139  2.06066  2.39741
 13039.4  8.71143  1  2.23079  2.06014  2.28486
 13040.1  8.71093  1.0  2.23  2.05948  2.16457
 13040.9  8.71042  1  2.22934  2.05889  2.04057
 13041.6  8.70992  1.0  2.22859  2.05827  1.91527
 13042.4  8.70942  1  2.22784  2.05757  1.79338
 13043.1  8.70891  1.0  2.22714  2.05707  1.67776
 13043.9  8.70841  1  2.22637  2.05632  1.57173
 13044.6  8.7079  1.0  2.22573  2.05579  1.47844
 13045.4  8.7074  1  2.2251  2.05515  1.39923
 13046.1  8.70689  1.0  2.22445  2.05454  1.33587
 13046.9  8.70639  1  2.22373  2.05391  1.2887
 13047.6  8.70588  1.0  2.2229  2.05328  1.25646
 13048.4  8.70538  1  2.22224  2.05262  1.23633
 13049.1  8.70488  1.0  2.22699  2.05704  1.22733
 13049.9  8.70437  1  2.22623  2.05648  1.22033
 13050.6  8.70387  1.0  2.22563  2.05584  1.21574
 13051.4  8.70336  1  2.22458  2.05497  1.21132
 13052.1  8.70286  1.0  2.22411  2.0546  1.20603
 13052.9  8.70236  1  2.22343  2.0539  1.19882
 13053.6  8.70185  1.0  2.22287  2.0533  1.19032
 13054.4  8.70135  1  2.22183  2.05252  1.18032
 13055.1  8.70084  1.0  2.22135  2.05197  1.16946
 13055.9  8.70034  1  2.22047  2.05124  1.15753
 13056.6  8.69984  1.0  2.2198  2.05058  1.14494
 13057.4  8.69933  1  2.21918  2.05012  1.13142
 13058.1  8.69883  1.0  2.2187  2.04972  1.11847
 13058.9  8.69833  1  2.21796  2.04897  1.10621
 13059.6  8.69782  1.0  2.21735  2.04857  1.09535
 13060.4  8.69732  1  2.21674  2.04799  1.08711
 13061.1  8.69682  1.0  2.21596  2.04741  1.08214
 13061.9  8.69632  1  2.2153  2.04674  1.08012
 13062.6  8.69581  1.0  2.21463  2.04607  1.08102
 13063.4  8.69531  1  2.21391  2.0455  1.08392
 13064.1  8.69481  1.0  2.21326  2.04491  1.08876
 13064.9  8.6943  1  2.21261  2.04432  1.09419
 13065.6  8.6938  1.0  2.21185  2.04365  1.10039
 13066.4  8.6933  1  2.21103  2.04296  1.10655
 13067.1  8.69279  1.0  2.21017  2.04218  1.11191
 13067.9  8.69229  1  2.20896  2.0412  1.1163
 13068.6  8.69179  1.0  2.20684  2.03926  1.1186
 13069.4  8.69129  1  2.20515  2.03771  1.1195
 13070.1  8.69078  1.0  2.20455  2.03704  1.11942
 13070.9  8.69028  1  2.20493  2.03747  1.11884
 13071.6  8.68978  1.0  2.20569  2.03817  1.11761
 13072.4  8.68928  1  2.20536  2.03787  1.11554
 13073.1  8.68878  1.0  2.20465  2.03724  1.11288
 13073.9  8.68827  1  2.20406  2.03674  1.11077
 13074.6  8.68777  1.0  2.2035  2.03619  1.10858
 13075.4  8.68727  1  2.20266  2.03565  1.10669
 13076.1  8.68677  1.0  2.20196  2.03489  1.10449
 13076.9  8.68626  1  2.20104  2.03408  1.10236
 13077.6  8.68576  1.0  2.20002  2.03316  1.10002
 13078.4  8.68526  1  2.19851  2.03179  1.09662
 13079.1  8.68476  1.0  2.1963  2.02976  1.09322
 13079.9  8.68426  1  2.19504  2.02868  1.08993
 13080.6  8.68375  1.0  2.19477  2.02826  1.08652
 13081.4  8.68325  1  2.19535  2.02891  1.08394
 13082.1  8.68275  1.0  2.19601  2.0296  1.08109
 13082.9  8.68225  1  2.19821  2.03187  1.07909
 13083.6  8.68175  1.0  2.19678  2.03038  1.07539
 13103.9  8.66822  1  2.18412  2.01939  1.08284
 13133.9  8.64827  1.0  2.16037  1.99852  1.0814
 13163.9  8.62841  1  2.13391  1.97498  1.07767
 13193.9  8.60865  1.0  2.11277  1.9564  1.07948
 13223.9  8.58897  1  2.08916  1.93548  1.07972
 13253.9  8.56939  1.0  2.06551  1.91447  1.0754
 13283.9  8.54989  1  2.04149  1.89309  1.07235
 13313.9  8.53049  1.0  2.0172  1.87145  1.07095
 13343.9  8.51117  1  1.99264  1.84964  1.07026
 13373.9  8.49194  1.0  1.96781  1.82747  1.06847
 13403.8  8.4728  1  1.94274  1.80496  1.06767
 13433.8  8.45374  1.0  1.9175  1.7824  1.06617
 13463.8  8.43477  1  1.8922  1.75964  1.06488
 13493.8  8.41588  1.0  1.86629  1.73624  1.06286
 13523.8  8.39709  1  1.83962  1.71255  1.05974
 13553.8  8.37837  1.0  1.79884  1.67518  1.04819
 13583.8  8.35974  1  1.78834  1.66608  1.05421
 13613.8  8.34118  1.0  1.76008  1.64048  1.04991
 13643.8  8.32272  1  1.73247  1.61538  1.04566
 13673.8  8.30433  1.0  1.70389  1.58951  1.04064
 13703.8  8.28603  1  1.67461  1.56296  1.03463
 13733.8  8.26781  1.0  1.64476  1.53572  1.02814
 13763.8  8.24966  1  1.61429  1.50778  1.02117
 13793.8  8.2316  1.0  1.58244  1.47878  1.01253
 13823.8  8.21361  1  1.54963  1.44863  1.00321
 13853.8  8.19571  1.0  1.51372  1.41575  0.991313
 13883.8  8.17788  1  1.48066  1.3854  0.980771
 13913.8  8.16013  1.0  1.44425  1.35194  0.967975
 13943.7  8.14246  1  1.40666  1.31723  0.953394
 13973.7  8.12486  1.0  1.36679  1.28042  0.937156
 14003.7  8.10735  1  1.3246  1.24157  0.918552
 14033.7  8.0899  1.0  1.27977  1.19991  0.897333
 14063.7  8.07253  1  1.20081  1.12653  0.851461
 14093.7  8.05524  1.0  1.18322  1.11043  0.848393
 14123.7  8.03802  1  1.12457  1.05575  0.815331
 14153.7  8.02087  1.0  1.08363  1.01777  0.794464
 14183.7  8.0038  1  1.03023  0.9681  0.763793
 14213.7  7.98679  1.0  0.973617  0.915302  0.729742
 14243.7  7.96987  1  0.917373  0.862888  0.695202
 14263.7  7.95862  1  0.880154  0.82817  0.672007

File: MEX1_29690_processed.xdi
# XDI/1.0
# Mono.d_spacing: 3.13897
# Reference.Element: Au
# ROI.start_bin: nan
# ROI.end_bin: nan
# Element.symbol: None
# Element.edge: None
# Processing.version: spec_processing_library v0.3.5
# Column.1: energy
# Column.2: bragg
# Column.3: count_time seconds
# Column.4: i0
# Column.5: i1
# Column.6: i2
# Describe.Column.1: energy - MEX1ES01ZEB01:CALC_ENERGY_EV
# Describe.Column.2: bragg - MEX1ES01ZEB01:BRAGG_WITH_OFFSET
# Describe.Column.3: count_time - MEX1ES01ZEB01:GATE_TIME_SET
# Describe.Column.4: i0 - MEX1ES01DAQ01:ch1:S:MeanValue_RBV
# Describe.Column.5: i1 - MEX1ES01DAQ01:ch2:S:MeanValue_RBV
# Describe.Column.6: i2 - MEX1ES01DAQ01:ch3:S:MeanValue_RBV
# Samples: [417, 417, 417, 417, 417, 417]
# ///
# Au foil
#
# xdi from default mda2xdi preset for mex1.
#--------
#  energy   bragg   count_time   i0   i1   i2
 11718.1  9.70271  1.0  3.31662  2.97705  3.12998
 11738.125  9.68599  1.0  3.29864  2.9625  3.12795
 11758.1  9.66937  1.0  3.27016  2.93835  3.11551
 11778.1  9.65279  1.0  3.26322  2.93369  3.12332
 11798.1  9.63627  1.0  3.24584  2.91949  3.12063
 11818.1  9.61981  1.0  3.21536  2.89367  3.1044
 11838.1  9.6034  1.0  3.21046  2.89076  3.11134
 11858.1  9.58706  1.0  3.17972  2.86458  3.0903
 11878.1  9.57076  1.0  3.17654  2.86291  3.08763
 11898.1  9.55454  1.0  3.14869  2.83939  3.02862
 0.0  0.0  0.0  0.0  0.0  0.0
 0.0  0.0  0.0  0.0  0.0  0.0
 0.0  0.0  0.0  0.0  0.0  0.0
 0.0  0.0  0.0  0.0  0.0  0.0
 0.0  0.0  0.0  0.0  0.0  0.0
 0.0  0.0  0.0  0.0  0.0  0.0
 0.0  0.0  0.0  0.0  0.0  0.0
 0.0  0.0  0.0  0.0  0.0  0.0
 0.0  0.0  0.0  0.0  0.0  0.0
 0.0  0.0  0.0  0.0  0.0  0.0
 0.0  0.0  0.0  0.0  0.0  0.0
 0.0  0.0  0.0  0.0  0.0  0.0
 0.0  0.0  0.0  0.0  0.0  0.0
 0.0  0.0  0.0  0.0  0.0  0.0
 0.0  0.0  0.0  0.0  0.0  0.0
 0.0  0.0  0.0  0.0  0.0  0.0
 0.0  0.0  0.0  0.0  0.0  0.0
 0.0  0.0  0.0  0.0  0.0  0.0
 0.0  0.0  0.0  0.0  0.0  0.0
 0.0  0.0  0.0  0.0  0.0  0.0
 0.0  0.0  0.0  0.0  0.0  0.0
 0.0  0.0  0.0  0.0  0.0  0.0
 0.0  0.0  0.0  0.0  0.0  0.0
 0.0  0.0  0.0  0.0  0.0  0.0
 0.0  0.0  0.0  0.0  0.0  0.0
 0.0  0.0  0.0  0.0  0.0  0.0
 0.0  0.0  0.0  0.0  0.0  0.0
 0.0  0.0  0.0  0.0  0.0  0.0
 0.0  0.0  0.0  0.0  0.0  0.0
 0.0  0.0  0.0  0.0  0.0  0.0
 0.0  0.0  0.0  0.0  0.0  0.0
 0.0  0.0  0.0  0.0  0.0  0.0
 0.0  0.0  0.0  0.0  0.0  0.0
 0.0  0.0  0.0  0.0  0.0  0.0
 0.0  0.0  0.0  0.0  0.0  0.0
 0.0  0.0  0.0  0.0  0.0  0.0
 0.0  0.0  0.0  0.0  0.0  0.0
 0.0  0.0  0.0  0.0  0.0  0.0
 0.0  0.0  0.0  0.0  0.0  0.0
 0.0  0.0  0.0  0.0  0.0  0.0
 0.0  0.0  0.0  0.0  0.0  0.0
 0.0  0.0  0.0  0.0  0.0  0.0
 0.0  0.0  0.0  0.0  0.0  0.0
 0.0  0.0  0.0  0.0  0.0  0.0
 0.0  0.0  0.0  0.0  0.0  0.0
 0.0  0.0  0.0  0.0  0.0  0.0
 0.0  0.0  0.0  0.0  0.0  0.0
 0.0  0.0  0.0  0.0  0.0  0.0
 0.0  0.0  0.0  0.0  0.0  0.0
 0.0  0.0  0.0  0.0  0.0  0.0
 0.0  0.0  0.0  0.0  0.0  0.0
 0.0  0.0  0.0  0.0  0.0  0.0
 0.0  0.0  0.0  0.0  0.0  0.0
 0.0  0.0  0.0  0.0  0.0  0.0
 0.0  0.0  0.0  0.0  0.0  0.0
 0.0  0.0  0.0  0.0  0.0  0.0
 0.0  0.0  0.0  0.0  0.0  0.0
 0.0  0.0  0.0  0.0  0.0  0.0
 0.0  0.0  0.0  0.0  0.0  0.0
 0.0  0.0  0.0  0.0  0.0  0.0
 0.0  0.0  0.0  0.0  0.0  0.0
 0.0  0.0  0.0  0.0  0.0  0.0
 0.0  0.0  0.0  0.0  0.0  0.0
 0.0  0.0  0.0  0.0  0.0  0.0
 0.0  0.0  0.0  0.0  0.0  0.0
 0.0  0.0  0.0  0.0  0.0  0.0
 0.0  0.0  0.0  0.0  0.0  0.0
 0.0  0.0  0.0  0.0  0.0  0.0
 0.0  0.0  0.0  0.0  0.0  0.0
 0.0  0.0  0.0  0.0  0.0  0.0
 0.0  0.0  0.0  0.0  0.0  0.0
 0.0  0.0  0.0  0.0  0.0  0.0
 0.0  0.0  0.0  0.0  0.0  0.0
 0.0  0.0  0.0  0.0  0.0  0.0
 0.0  0.0  0.0  0.0  0.0  0.0
 0.0  0.0  0.0  0.0  0.0  0.0
 0.0  0.0  0.0  0.0  0.0  0.0
 0.0  0.0  0.0  0.0  0.0  0.0
 0.0  0.0  0.0  0.0  0.0  0.0
 0.0  0.0  0.0  0.0  0.0  0.0
 0.0  0.0  0.0  0.0  0.0  0.0
 0.0  0.0  0.0  0.0  0.0  0.0
 0.0  0.0  0.0  0.0  0.0  0.0
 0.0  0.0  0.0  0.0  0.0  0.0
 0.0  0.0  0.0  0.0  0.0  0.0
 0.0  0.0  0.0  0.0  0.0  0.0
 0.0  0.0  0.0  0.0  0.0  0.0
 0.0  0.0  0.0  0.0  0.0  0.0
 0.0  0.0  0.0  0.0  0.0  0.0
 0.0  0.0  0.0  0.0  0.0  0.0
 0.0  0.0  0.0  0.0  0.0  0.0
 0.0  0.0  0.0  0.0  0.0  0.0
 0.0  0.0  0.0  0.0  0.0  0.0
 0.0  0.0  0.0  0.0  0.0  0.0
 0.0  0.0  0.0  0.0  0.0  0.0
 0.0  0.0  0.0  0.0  0.0  0.0
 0.0  0.0  0.0  0.0  0.0  0.0
 0.0  0.0  0.0  0.0  0.0  0.0
 0.0  0.0  0.0  0.0  0.0  0.0
 0.0  0.0  0.0  0.0  0.0  0.0
 0.0  0.0  0.0  0.0  0.0  0.0
 0.0  0.0  0.0  0.0  0.0  0.0
 0.0  0.0  0.0  0.0  0.0  0.0
 0.0  0.0  0.0  0.0  0.0  0.0
 0.0  0.0  0.0  0.0  0.0  0.0
 0.0  0.0  0.0  0.0  0.0  0.0
 0.0  0.0  0.0  0.0  0.0  0.0
 0.0  0.0  0.0  0.0  0.0  0.0
 0.0  0.0  0.0  0.0  0.0  0.0
 0.0  0.0  0.0  0.0  0.0  0.0
 0.0  0.0  0.0  0.0  0.0  0.0
 0.0  0.0  0.0  0.0  0.0  0.0
 0.0  0.0  0.0  0.0  0.0  0.0
 0.0  0.0  0.0  0.0  0.0  0.0
 0.0  0.0  0.0  0.0  0.0  0.0
 0.0  0.0  0.0  0.0  0.0  0.0
 0.0  0.0  0.0  0.0  0.0  0.0
 0.0  0.0  0.0  0.0  0.0  0.0
 0.0  0.0  0.0  0.0  0.0  0.0
 0.0  0.0  0.0  0.0  0.0  0.0
 0.0  0.0  0.0  0.0  0.0  0.0
 0.0  0.0  0.0  0.0  0.0  0.0
 0.0  0.0  0.0  0.0  0.0  0.0
 0.0  0.0  0.0  0.0  0.0  0.0
 0.0  0.0  0.0  0.0  0.0  0.0
 0.0  0.0  0.0  0.0  0.0  0.0
 0.0  0.0  0.0  0.0  0.0  0.0
 0.0  0.0  0.0  0.0  0.0  0.0
 0.0  0.0  0.0  0.0  0.0  0.0
 0.0  0.0  0.0  0.0  0.0  0.0
 0.0  0.0  0.0  0.0  0.0  0.0
 0.0  0.0  0.0  0.0  0.0  0.0
 0.0  0.0  0.0  0.0  0.0  0.0
 0.0  0.0  0.0  0.0  0.0  0.0
 0.0  0.0  0.0  0.0  0.0  0.0
 0.0  0.0  0.0  0.0  0.0  0.0
 0.0  0.0  0.0  0.0  0.0  0.0
 0.0  0.0  0.0  0.0  0.0  0.0
 0.0  0.0  0.0  0.0  0.0  0.0
 0.0  0.0  0.0  0.0  0.0  0.0
 0.0  0.0  0.0  0.0  0.0  0.0
 0.0  0.0  0.0  0.0  0.0  0.0
 0.0  0.0  0.0  0.0  0.0  0.0
 0.0  0.0  0.0  0.0  0.0  0.0
 0.0  0.0  0.0  0.0  0.0  0.0
 0.0  0.0  0.0  0.0  0.0  0.0
 0.0  0.0  0.0  0.0  0.0  0.0
 0.0  0.0  0.0  0.0  0.0  0.0
 0.0  0.0  0.0  0.0  0.0  0.0
 0.0  0.0  0.0  0.0  0.0  0.0
 0.0  0.0  0.0  0.0  0.0  0.0
 0.0  0.0  0.0  0.0  0.0  0.0
 0.0  0.0  0.0  0.0  0.0  0.0
 0.0  0.0  0.0  0.0  0.0  0.0
 0.0  0.0  0.0  0.0  0.0  0.0
 0.0  0.0  0.0  0.0  0.0  0.0
 0.0  0.0  0.0  0.0  0.0  0.0
 0.0  0.0  0.0  0.0  0.0  0.0
 0.0  0.0  0.0  0.0  0.0  0.0
 0.0  0.0  0.0  0.0  0.0  0.0
 0.0  0.0  0.0  0.0  0.0  0.0
 0.0  0.0  0.0  0.0  0.0  0.0
 0.0  0.0  0.0  0.0  0.0  0.0
 0.0  0.0  0.0  0.0  0.0  0.0
 0.0  0.0  0.0  0.0  0.0  0.0
 0.0  0.0  0.0  0.0  0.0  0.0
 0.0  0.0  0.0  0.0  0.0  0.0
 0.0  0.0  0.0  0.0  0.0  0.0
 0.0  0.0  0.0  0.0  0.0  0.0
 0.0  0.0  0.0  0.0  0.0  0.0
 0.0  0.0  0.0  0.0  0.0  0.0
 0.0  0.0  0.0  0.0  0.0  0.0
 0.0  0.0  0.0  0.0  0.0  0.0
 0.0  0.0  0.0  0.0  0.0  0.0
 0.0  0.0  0.0  0.0  0.0  0.0
 0.0  0.0  0.0  0.0  0.0  0.0
 0.0  0.0  0.0  0.0  0.0  0.0
 0.0  0.0  0.0  0.0  0.0  0.0
 0.0  0.0  0.0  0.0  0.0  0.0
 0.0  0.0  0.0  0.0  0.0  0.0
 0.0  0.0  0.0  0.0  0.0  0.0
 0.0  0.0  0.0  0.0  0.0  0.0
 0.0  0.0  0.0  0.0  0.0  0.0
 0.0  0.0  0.0  0.0  0.0  0.0
 0.0  0.0  0.0  0.0  0.0  0.0
 0.0  0.0  0.0  0.0  0.0  0.0
 0.0  0.0  0.0  0.0  0.0  0.0
 0.0  0.0  0.0  0.0  0.0  0.0
 0.0  0.0  0.0  0.0  0.0  0.0
 0.0  0.0  0.0  0.0  0.0  0.0
 0.0  0.0  0.0  0.0  0.0  0.0
 0.0  0.0  0.0  0.0  0.0  0.0
 0.0  0.0  0.0  0.0  0.0  0.0
 0.0  0.0  0.0  0.0  0.0  0.0
 0.0  0.0  0.0  0.0  0.0  0.0
 0.0  0.0  0.0  0.0  0.0  0.0
 0.0  0.0  0.0  0.0  0.0  0.0
 0.0  0.0  0.0  0.0  0.0  0.0
 0.0  0.0  0.0  0.0  0.0  0.0

File: MEX1_29691_processed.xdi
# XDI/1.0
# Mono.d_spacing: 3.13897
# Reference.Element: Au
# ROI.start_bin: nan
# ROI.end_bin: nan
# Element.symbol: None
# Element.edge: None
# Processing.version: spec_processing_library v0.3.5
# Column.1: energy
# Column.2: bragg
# Column.3: count_time seconds
# Column.4: i0
# Column.5: i1
# Column.6: i2
# Describe.Column.1: energy - MEX1ES01ZEB01:CALC_ENERGY_EV
# Describe.Column.2: bragg - MEX1ES01ZEB01:BRAGG_WITH_OFFSET
# Describe.Column.3: count_time - MEX1ES01ZEB01:GATE_TIME_SET
# Describe.Column.4: i0 - MEX1ES01DAQ01:ch1:S:MeanValue_RBV
# Describe.Column.5: i1 - MEX1ES01DAQ01:ch2:S:MeanValue_RBV
# Describe.Column.6: i2 - MEX1ES01DAQ01:ch3:S:MeanValue_RBV
# Samples: [417, 417, 417, 417, 417, 417]
# ///
# Au foil
#
# xdi from default mda2xdi preset for mex1.
#--------
#  energy   bragg   count_time   i0   i1   i2
 11718.1  9.70271  1.0  3.31679  2.97722  3.13033
 11748.1  9.67767  1  3.28782  2.95345  3.12503
 11778.1  9.65279  1.0  3.26342  2.93405  3.12352
 11808.1  9.62803  1  3.23691  2.91247  3.11891
 11838.1  9.6034  1.0  3.21033  2.89075  3.11145
 11868.1  9.5789  1  3.18497  2.87007  3.09731
 11898.1  9.55454  1.0  3.14823  2.83907  3.0282
 11898.8  9.55394  1  3.13137  2.82405  3.00892
 11899.6  9.55334  1.0  3.12469  2.81796  2.99921
 11900.3  9.55273  1  3.13062  2.82342  3.00098
 11901.1  9.55212  1.0  3.14515  2.83647  3.0108
 11901.8  9.55151  1  3.15153  2.84236  3.01232
 11902.6  9.5509  1.0  3.15196  2.84275  3.00816
 11903.3  9.5503  1  3.15135  2.8423  3.00178
 11904.1  9.54969  1.0  3.15023  2.84129  2.99449
 11904.8  9.54908  1  3.14749  2.83887  2.98525
 11905.6  9.54848  1.0  3.13898  2.83134  2.96989
 11906.3  9.54787  1  3.1217  2.81572  2.94491
 11907.1  9.54726  1.0  3.11488  2.80942  2.92884
 11907.8  9.54666  1  3.12474  2.81853  2.92742
 11908.6  9.54605  1.0  3.12999  2.82331  2.91998
 11909.3  9.54544  1  3.11942  2.81375  2.89593
 11910.1  9.54484  1.0  3.11994  2.81433  2.88028
 11910.8  9.54423  1  3.12898  2.82267  2.86927
 11911.6  9.54362  1.0  3.1446  2.83666  2.86138
 11912.3  9.54302  1  3.14789  2.83975  2.83768
 11913.1  9.54241  1.0  3.14795  2.83996  2.80552
 11913.8  9.5418  1  3.14726  2.83923  2.766
 11914.6  9.5412  1.0  3.14594  2.83822  2.71692
 11915.3  9.54059  1  3.1423  2.83489  2.65457
 11916.1  9.53999  1.0  3.13274  2.82632  2.57193
 11916.8  9.53938  1  3.11554  2.81096  2.46374
 11917.6  9.53877  1.0  3.11344  2.80902  2.34394
 11918.3  9.53817  1  3.12107  2.81605  2.20661
 11919.1  9.53756  1.0  3.13545  2.82909  2.05462
 11919.8  9.53696  1  3.13969  2.8332  1.88992
 11920.6  9.53635  1.0  3.14011  2.83346  1.7374
 11921.3  9.53575  1  3.13971  2.83314  1.61547
 11922.1  9.53514  1.0  3.13921  2.83275  1.52871
 11922.8  9.53453  1  3.13862  2.83207  1.4714
 11923.6  9.53393  1.0  3.1378  2.83146  1.43726
 11924.3  9.53333  1  3.13705  2.8308  1.41989
 11925.1  9.53272  1.0  3.13622  2.83014  1.41372
 11925.8  9.53211  1  3.13559  2.82967  1.41266
 11926.6  9.53151  1.0  3.13478  2.82896  1.41183
 11927.3  9.5309  1  3.13375  2.8281  1.40743
 11928.1  9.5303  1.0  3.13299  2.82756  1.39832
 11928.8  9.52969  1  3.13221  2.82688  1.38434
 11929.6  9.52909  1.0  3.13143  2.82626  1.36663
 11930.3  9.52849  1  3.13068  2.8256  1.34657
 11931.1  9.52788  1.0  3.1298  2.82486  1.32676
 11931.8  9.52728  1  3.12895  2.82408  1.30871
 11932.6  9.52667  1.0  3.1282  2.82341  1.29387
 11933.3  9.52607  1  3.12752  2.82292  1.2825
 11934.1  9.52547  1.0  3.1265  2.82227  1.27431
 11934.8  9.52486  1  3.12565  2.82145  1.26896
 11935.6  9.52426  1.0  3.12501  2.82067  1.26508
 11936.3  9.52365  1  3.12405  2.82  1.26124
 11937.1  9.52305  1.0  3.12326  2.81939  1.25645
 11937.8  9.52245  1  3.13018  2.82559  1.25284
 11938.6  9.52184  1.0  3.12936  2.82482  1.24547
 11939.3  9.52124  1  3.12852  2.82419  1.23829
 11940.1  9.52063  1.0  3.12761  2.82352  1.23169
 11940.8  9.52003  1  3.12686  2.82292  1.2235
 11941.6  9.51943  1.0  3.126  2.82226  1.21143
 11942.3  9.51882  1  3.12522  2.82156  1.19322
 11943.1  9.51822  1.0  3.12455  2.82084  1.16839
 11943.8  9.51762  1  3.12359  2.82004  1.13933
 11944.6  9.51702  1.0  3.12268  2.81936  1.11017
 11945.3  9.51641  1  3.12206  2.81871  1.08533
 11946.1  9.51581  1.0  3.12114  2.81814  1.06854
 11946.8  9.51521  1  3.12029  2.81743  1.06179
 11947.6  9.5146  1.0  3.11964  2.81678  1.06465
 11948.3  9.514  1  3.1185  2.81601  1.07553
 11949.1  9.5134  1.0  3.11777  2.81527  1.09137
 11949.8  9.51279  1  3.11689  2.81457  1.10918
 11950.6  9.51219  1.0  3.11614  2.81389  1.12596
 11951.3  9.51159  1  3.11522  2.81316  1.13971
 11952.1  9.51099  1.0  3.11447  2.81251  1.14912
 11952.8  9.51039  1  3.11365  2.81179  1.15475
 11953.6  9.50978  1.0  3.11275  2.81113  1.15754
 11954.3  9.50918  1  3.11173  2.81004  1.15934
 11955.1  9.50858  1.0  3.11104  2.80957  1.16177
 11955.8  9.50798  1  3.11028  2.80889  1.16512
 11956.6  9.50738  1.0  3.10961  2.80834  1.16924
 11957.3  9.50677  1  3.10878  2.80769  1.17302
 11958.1  9.50617  1.0  3.10808  2.807  1.17569
 11958.8  9.50557  1  3.10657  2.80597  1.17571
 11959.6  9.50497  1.0  3.10633  2.8058  1.17367
 11960.3  9.50437  1  3.10532  2.80487  1.16872
 11961.1  9.50377  1.0  3.10455  2.80418  1.16134
 11961.8  9.50317  1  3.10386  2.80354  1.15235
 11962.6  9.50256  1.0  3.10304  2.80294  1.14207
 11963.3  9.50196  1  3.10206  2.80216  1.13112
 11964.1  9.50136  1.0  3.10125  2.80136  1.11967
 11964.8  9.50076  1  3.10047  2.80092  1.10863
 11965.6  9.50016  1.0  3.09991  2.80023  1.0978
 11966.3  9.49956  1  3.09888  2.79946  1.08779
 11967.1  9.49896  1.0  3.09795  2.79862  1.07888
 11967.8  9.49836  1  3.09722  2.79802  1.07144
 11988.1  9.48215  1.0  3.08615  2.78936  1.15127
 12018.1  9.45826  1  3.0622  2.76982  1.124
 12048.1  9.4345  1.0  3.01406  2.72814  1.14569
 12078.1  9.41087  1  3.01098  2.72733  1.12506
 12108.1  9.38735  1.0  2.98579  2.7064  1.14118
 12138.1  9.36393  1  2.96069  2.68553  1.12949
 12168.1  9.34063  1.0  2.93716  2.66597  1.13457
 12198.1  9.31746  1  2.91129  2.64433  1.14202
 12228  9.29442  1.0  2.88337  2.62075  1.12468
 12258  9.27147  1  2.85001  2.59216  1.14003
 12288  9.24863  1.0  2.82207  2.56843  1.13723
 12318  9.22591  1  2.79745  2.54767  1.13223
 12348  9.2033  1.0  2.77261  2.52685  1.14509
 12378  9.18082  1  2.74952  2.50715  1.14062
 12408  9.15843  1.0  2.72453  2.48598  1.14146
 12438  9.13615  1  2.69998  2.46527  1.14861
 12468  9.11399  1.0  2.67458  2.44364  1.1488
 12498  9.09193  1  2.65316  2.42563  1.14802
 12528  9.06997  1.0  2.62945  2.40546  1.15266
 12558  9.04813  1  2.60588  2.38526  1.15687
 12588  9.02639  1.0  2.5821  2.36477  1.15631
 12618  9.00475  1  2.55773  2.3439  1.15572
 12648  8.98322  1.0  2.53343  2.32306  1.15903
 12678  8.96179  1  2.50926  2.30223  1.16129
 12708  8.94047  1.0  2.48528  2.28156  1.16142
 12738  8.91924  1  2.45715  2.25695  1.1588
 12768  8.89812  1.0  2.43822  2.241  1.16261
 12798  8.87709  1  2.4149  2.22065  1.16462
 12827.9  8.85617  1.0  2.391  2.19989  1.16521
 12857.9  8.83534  1  2.36642  2.17865  1.16429
 12887.9  8.81462  1.0  2.3435  2.15866  1.16452
 12917.9  8.79399  1  2.31919  2.13745  1.16467
 12947.9  8.77345  1.0  2.2965  2.11757  1.16546
 12977.9  8.75302  1  2.27283  2.09681  1.16497
 13007.9  8.73268  1.0  2.2494  2.07643  1.16414
 13037.9  8.71243  1  2.22561  2.05544  1.16329
 13067.9  8.69228  1.0  2.20079  2.03361  1.16185
 13097.9  8.67222  1  2.17727  2.013  1.16107
 13127.9  8.65225  1.0  2.15317  1.99165  1.1597
 13147.9  8.63899  1.0  2.1376  1.97784  1.15852