Folder: xdiProc

File: MEX1_29686_processed.xdi
# XDI/1.0
# Mono.d_spacing: 3.13897
# Reference.Element: Hf
# ROI.start_bin: nan
# ROI.end_bin: nan
# Element.symbol: None
# Element.edge: None
# Processing.version: spec_processing_library v0.3.5
# Column.1: energy
# Column.2: bragg
# Column.3: count_time seconds
# Column.4: i0
# Column.5: i1
# Column.6: i2
# Describe.Column.1: energy - MEX1ES01ZEB01:CALC_ENERGY_EV
# Describe.Column.2: bragg - MEX1ES01ZEB01:BRAGG_WITH_OFFSET
# Describe.Column.3: count_time - MEX1ES01ZEB01:GATE_TIME_SET
# Describe.Column.4: i0 - MEX1ES01DAQ01:ch1:S:MeanValue_RBV
# Describe.Column.5: i1 - MEX1ES01DAQ01:ch2:S:MeanValue_RBV
# Describe.Column.6: i2 - MEX1ES01DAQ01:ch3:S:MeanValue_RBV
# Samples: [417, 417, 417, 417, 417, 417]
# ///
# Hf foil
#
# xdi from default mda2xdi preset for mex1.
#--------
#  energy   bragg   count_time   i0   i1   i2
 9360.42  12.1802  1.0  2.90663  2.3546  4.67037
 9390.44  12.1406  1  2.88787  2.34404  4.69073
 9420.44  12.1014  1.0  2.86901  2.3333  4.70929
 9450.43  12.0624  1  2.84995  2.32237  4.72584
 9480.43  12.0237  1.0  2.83137  2.31157  4.73824
 9510.43  11.9852  1  2.8127  2.30068  4.7345
 9540.42  11.9469  1.0  2.79417  2.28977  4.5867
 9541.16  11.946  1  2.79357  2.28944  4.57302
 9541.91  11.945  1.0  2.79286  2.28893  4.55769
 9542.66  11.9441  1  2.7923  2.28862  4.54057
 9543.41  11.9431  1.0  2.79172  2.28826  4.52102
 9544.16  11.9422  1  2.79107  2.28783  4.49981
 9544.91  11.9412  1.0  2.79046  2.28742  4.47539
 9545.66  11.9403  1  2.78983  2.28705  4.44787
 9546.41  11.9393  1.0  2.78927  2.28668  4.41646
 9547.16  11.9384  1  2.78871  2.28629  4.38002
 9547.91  11.9374  1.0  2.78807  2.28593  4.33854
 9548.66  11.9365  1  2.78737  2.28551  4.28922
 9549.41  11.9355  1.0  2.7869  2.28519  4.23191
 9550.16  11.9346  1  2.78627  2.28476  4.16433
 9550.91  11.9336  1.0  2.78555  2.28428  4.08234
 9551.66  11.9327  1  2.78496  2.28396  3.98426
 9552.41  11.9317  1.0  2.78448  2.28351  3.86301
 9553.16  11.9308  1  2.78376  2.28308  3.71206
 9553.91  11.9298  1.0  2.78318  2.28268  3.52373
 9554.66  11.9289  1  2.78931  2.28787  3.29238
 9555.41  11.9279  1.0  2.78873  2.28752  2.98977
 9556.16  11.927  1  2.78817  2.28714  2.61289
 9556.91  11.926  1.0  2.78745  2.28671  2.1664
 9557.66  11.9251  1  2.78683  2.2863  1.69509
 9558.41  11.9241  1.0  2.78626  2.28592  1.26676
 9559.16  11.9232  1  2.78553  2.28545  0.949995
 9559.91  11.9222  1.0  2.78507  2.28516  0.755319
 9560.66  11.9213  1  2.78436  2.2847  0.647215
 9561.41  11.9203  1.0  2.78356  2.28424  0.587629
 9562.16  11.9194  1  2.78326  2.28392  0.556361
 9562.91  11.9184  1.0  2.7823  2.28329  0.552437
 9563.66  11.9175  1  2.78189  2.28313  0.58449
 9564.41  11.9165  1.0  2.78134  2.28272  0.657994
 9565.16  11.9156  1  2.78025  2.28202  0.767644
 9565.91  11.9146  1.0  2.78015  2.28193  0.89754
 9566.66  11.9137  1  2.77956  2.28157  1.02883
 9567.41  11.9127  1.0  2.77834  2.2807  1.14815
 9568.16  11.9118  1  2.77826  2.28068  1.25277
 9568.91  11.9108  1.0  2.77768  2.28037  1.33954
 9569.66  11.9099  1  2.77703  2.27996  1.40885
 9570.41  11.9089  1.0  2.77646  2.27958  1.46341
 9571.16  11.908  1  2.77596  2.27933  1.50914
 9571.91  11.9071  1.0  2.77527  2.27882  1.55337
 9572.66  11.9061  1  2.77458  2.27837  1.60148
 9573.41  11.9052  1.0  2.7741  2.278  1.65511
 9574.16  11.9042  1  2.77338  2.27761  1.71258
 9574.91  11.9033  1.0  2.7728  2.27723  1.77013
 9575.66  11.9023  1  2.77219  2.27672  1.82239
 9576.41  11.9014  1.0  2.77142  2.27626  1.86703
 9577.16  11.9004  1  2.77089  2.27595  1.90159
 9577.91  11.8995  1.0  2.77023  2.27548  1.92526
 9578.66  11.8985  1  2.76954  2.27506  1.93806
 9579.41  11.8976  1.0  2.76906  2.2747  1.94214
 9580.16  11.8967  1  2.76815  2.27408  1.93928
 9580.91  11.8957  1.0  2.76782  2.2739  1.93317
 9581.66  11.8948  1  2.76696  2.27333  1.92598
 9582.41  11.8938  1.0  2.76634  2.27305  1.92068
 9583.16  11.8929  1  2.76583  2.27262  1.91808
 9583.91  11.8919  1.0  2.76493  2.27209  1.91847
 9584.66  11.891  1  2.76456  2.27177  1.92095
 9585.41  11.89  1.0  2.76393  2.27135  1.92465
 9586.16  11.8891  1  2.7634  2.27111  1.92858
 9586.91  11.8882  1.0  2.7628  2.2707  1.93246
 9587.66  11.8872  1  2.76224  2.27032  1.93685
 9588.4  11.8863  1.0  2.76148  2.26977  1.94195
 9589.16  11.8853  1  2.76736  2.27479  1.95329
 9589.91  11.8844  1.0  2.76683  2.27442  1.96118
 9590.66  11.8834  1  2.76616  2.27402  1.97039
 9591.41  11.8825  1.0  2.76564  2.27366  1.97966
 9592.16  11.8816  1  2.76492  2.27317  1.98814
 9592.9  11.8806  1.0  2.76429  2.27273  1.99479
 9593.65  11.8797  1  2.76367  2.27236  1.99895
 9594.41  11.8787  1.0  2.76297  2.27192  2.00073
 9595.15  11.8778  1  2.76243  2.27147  2.00021
 9595.91  11.8768  1.0  2.76181  2.27116  1.99828
 9596.65  11.8759  1  2.76098  2.27058  1.99495
 9597.4  11.875  1.0  2.76055  2.27031  1.99137
 9598.15  11.874  1  2.75998  2.26987  1.98755
 9598.9  11.8731  1.0  2.75911  2.26933  1.98365
 9599.65  11.8721  1  2.75866  2.26905  1.9804
 9600.4  11.8712  1.0  2.75809  2.26869  1.97727
 9601.15  11.8703  1  2.75741  2.26816  1.97422
 9601.9  11.8693  1.0  2.75681  2.26783  1.97138
 9602.65  11.8684  1  2.75613  2.26739  1.96827
 9603.4  11.8674  1.0  2.75554  2.26699  1.96474
 9604.15  11.8665  1  2.75504  2.26667  1.96099
 9604.9  11.8656  1.0  2.75438  2.26623  1.95695
 9605.65  11.8646  1  2.75369  2.26576  1.95313
 9606.4  11.8637  1.0  2.75318  2.26548  1.94948
 9607.15  11.8627  1  2.75239  2.26495  1.94625
 9607.9  11.8618  1.0  2.75187  2.2646  1.94353
 9608.65  11.8609  1  2.7513  2.26418  1.94121
 9609.4  11.8599  1.0  2.75066  2.26373  1.93919
 9610.15  11.859  1  2.75004  2.26338  1.93759
 9630.41  11.8337  1.0  2.73721  2.25563  2.00501
 9660.41  11.7964  1  2.71814  2.2438  1.93832
 9690.4  11.7594  1.0  2.69847  2.23151  1.97567
 9720.4  11.7226  1  2.68019  2.22029  1.98888
 9750.39  11.686  1.0  2.66142  2.20847  1.98052
 9780.39  11.6496  1  2.6387  2.19326  2.00427
 9810.38  11.6135  1.0  2.62561  2.18612  2.00385
 9840.38  11.5776  1  2.60631  2.17363  2.02359
 9870.38  11.542  1.0  2.58891  2.16255  2.04258
 9900.38  11.5065  1  2.57083  2.15089  2.04216
 9930.37  11.4713  1.0  2.55279  2.13929  2.07139
 9960.37  11.4363  1  2.53202  2.12518  2.06918
 9990.36  11.4015  1.0  2.48643  2.09012  2.06664
 10020.4  11.3669  1  2.46331  2.07395  2.07786
 10050.4  11.3325  1.0  2.48909  2.09876  2.12283
 10080.3  11.2984  1  2.47147  2.087  2.14086
 10110.3  11.2644  1.0  2.4537  2.07509  2.15955
 10140.3  11.2306  1  2.43608  2.06312  2.1646
 10170.3  11.1971  1.0  2.4184  2.0511  2.18332
 10200.3  11.1637  1  2.4005  2.03882  2.1998
 10230.3  11.1306  1.0  2.38229  2.02619  2.20912
 10260.3  11.0976  1  2.35903  2.00926  2.21653
 10290.3  11.0649  1.0  2.34938  2.00377  2.24045
 10320.3  11.0323  1  2.33217  1.99175  2.25444
 10350.3  10.9999  1.0  2.31501  1.97976  2.26563
 10380.3  10.9677  1  2.29766  1.96759  2.27852
 10410.3  10.9357  1.0  2.28046  1.95544  2.29389
 10440.3  10.9039  1  2.26366  1.94346  2.30611
 10470.3  10.8723  1.0  2.24691  1.93152  2.31835
 10500.3  10.8409  1  2.23016  1.91956  2.33059
 10530.3  10.8096  1.0  2.21227  1.90657  2.3433
 10560.3  10.7786  1  2.19678  1.89554  2.35701
 10590.3  10.7477  1.0  2.18059  1.88383  2.36937
 10620.3  10.717  1  2.16385  1.87171  2.3815
 10650.3  10.6864  1.0  2.14738  1.8597  2.39452
 10680.3  10.6561  1  2.12602  1.84334  2.40138
 10710.3  10.6259  1.0  2.11569  1.83649  2.40853
 10740.3  10.5958  1  2.09979  1.82475  0.866134
 10770.3  10.566  1.0  2.08381  1.81295  1.61586
 10790.3  10.5462  1.0  2.07287  1.80482  1.59495

File: MEX1_29687_processed.xdi
# XDI/1.0
# Mono.d_spacing: 3.13897
# Reference.Element: W
# ROI.start_bin: nan
# ROI.end_bin: nan
# Element.symbol: None
# Element.edge: None
# Processing.version: spec_processing_library v0.3.5
# Column.1: energy
# Column.2: bragg
# Column.3: count_time seconds
# Column.4: i0
# Column.5: i1
# Column.6: i2
# Describe.Column.1: energy - MEX1ES01ZEB01:CALC_ENERGY_EV
# Describe.Column.2: bragg - MEX1ES01ZEB01:BRAGG_WITH_OFFSET
# Describe.Column.3: count_time - MEX1ES01ZEB01:GATE_TIME_SET
# Describe.Column.4: i0 - MEX1ES01DAQ01:ch1:S:MeanValue_RBV
# Describe.Column.5: i1 - MEX1ES01DAQ01:ch2:S:MeanValue_RBV
# Describe.Column.6: i2 - MEX1ES01DAQ01:ch3:S:MeanValue_RBV
# Samples: [417, 417, 417, 417, 417, 417]
# ///
# W foil
#
# xdi from default mda2xdi preset for mex1.
#--------
#  energy   bragg   count_time   i0   i1   i2
 10006.3  11.383  1  2.51753  2.1181  3.66263
 10036.4  11.3485  1.0  2.4987  2.10539  3.66924
 10066.4  11.3143  1  2.4816  2.09416  3.67882
 10096.3  11.2802  1.0  2.47052  2.0878  3.69604
 10126.3  11.2464  1  2.45321  2.07623  3.70062
 10156.3  11.2127  1.0  2.43628  2.06482  3.6879
 10186.3  11.1793  1  2.41932  2.05342  3.50392
 10187.1  11.1784  1.0  2.41889  2.05313  3.48775
 10187.8  11.1776  1  2.41831  2.05275  3.469
 10188.6  11.1768  1.0  2.4178  2.05239  3.4485
 10189.3  11.1759  1  2.41713  2.0519  3.42538
 10190.1  11.1751  1.0  2.41659  2.05143  3.39954
 10190.8  11.1743  1  2.41607  2.05112  3.37059
 10191.6  11.1734  1.0  2.41562  2.05073  3.33781
 10192.3  11.1726  1  2.41499  2.05035  3.29989
 10193.1  11.1718  1.0  2.4144  2.04988  3.25673
 10193.8  11.1709  1  2.41379  2.04946  3.20726
 10194.6  11.1701  1.0  2.41285  2.04877  3.14866
 10195.3  11.1693  1  2.41154  2.0477  3.08003
 10196.1  11.1685  1.0  2.4106  2.04701  3.0002
 10196.8  11.1676  1  2.41076  2.04716  2.90722
 10197.6  11.1668  1.0  2.41072  2.0472  2.79573
 10198.3  11.166  1  2.41032  2.04695  2.66116
 10199.1  11.1651  1.0  2.40978  2.04653  2.49775
 10199.8  11.1643  1  2.40908  2.04607  2.29941
 10200.6  11.1635  1.0  2.40859  2.04571  2.06238
 10201.3  11.1626  1  2.40789  2.04516  1.77959
 10202.1  11.1618  1.0  2.40732  2.0448  1.45645
 10202.8  11.161  1  2.40663  2.04428  1.11242
 10203.6  11.1601  1.0  2.40598  2.04383  0.783707
 10204.3  11.1593  1  2.40544  2.04337  0.517623
 10205.1  11.1585  1.0  2.4048  2.04293  0.339019
 10205.8  11.1576  1  2.40416  2.04253  0.242483
 10206.6  11.1568  1.0  2.40357  2.04209  0.207299
 10207.3  11.156  1  2.40294  2.04155  0.215172
 10208.1  11.1552  1.0  2.40244  2.04128  0.255422
 10208.8  11.1543  1  2.40185  2.04085  0.321186
 10209.6  11.1535  1.0  2.40133  2.0405  0.402996
 10210.3  11.1527  1  2.4008  2.0401  0.490769
 10211.1  11.1518  1.0  2.40024  2.03971  0.576067
 10211.8  11.151  1  2.39967  2.03931  0.653022
 10212.6  11.1502  1.0  2.39927  2.039  0.717947
 10213.3  11.1494  1  2.39872  2.03857  0.768858
 10214.1  11.1485  1.0  2.39829  2.03826  0.806493
 10214.8  11.1477  1  2.39783  2.03788  0.834169
 10215.6  11.1469  1.0  2.39726  2.0375  0.856605
 10216.3  11.146  1  2.39664  2.03701  0.877096
 10217.1  11.1452  1.0  2.39608  2.03674  0.897499
 10217.8  11.1444  1  2.40122  2.04113  0.921735
 10218.6  11.1435  1.0  2.40071  2.04075  0.946452
 10219.3  11.1427  1  2.4001  2.04033  0.973233
 10220.1  11.1419  1.0  2.39958  2.03992  1.00084
 10220.8  11.1411  1  2.39914  2.03958  1.02762
 10221.6  11.1402  1.0  2.39848  2.03914  1.05264
 10222.3  11.1394  1  2.39788  2.03879  1.07546
 10223.1  11.1386  1.0  2.39734  2.03838  1.09493
 10223.8  11.1378  1  2.39679  2.03796  1.11081
 10224.6  11.1369  1.0  2.39635  2.03755  1.12446
 10225.3  11.1361  1  2.39575  2.03718  1.13848
 10226.1  11.1353  1.0  2.39521  2.03675  1.15439
 10226.8  11.1344  1  2.39457  2.03629  1.1723
 10227.6  11.1336  1.0  2.39403  2.03594  1.1898
 10228.3  11.1328  1  2.39344  2.03547  1.20456
 10229.1  11.132  1.0  2.39293  2.03518  1.2158
 10229.8  11.1311  1  2.39229  2.03471  1.22298
 10230.6  11.1303  1.0  2.39167  2.03423  1.22679
 10231.3  11.1295  1  2.39105  2.03374  1.22838
 10232.1  11.1287  1.0  2.39025  2.03312  1.22873
 10232.8  11.1278  1  2.38889  2.0321  1.22938
 10233.6  11.127  1.0  2.38595  2.02967  1.23065
 10234.3  11.1262  1  2.38164  2.02608  1.23338
 10235.1  11.1254  1.0  2.38144  2.02595  1.23943
 10235.8  11.1245  1  2.38549  2.02949  1.24878
 10236.6  11.1237  1.0  2.38758  2.03129  1.25674
 10237.3  11.1229  1  2.38747  2.03123  1.26143
 10238.1  11.1221  1.0  2.38684  2.03083  1.26404
 10238.8  11.1212  1  2.38633  2.03041  1.26494
 10239.6  11.1204  1.0  2.38562  2.02996  1.26459
 10240.3  11.1196  1  2.3851  2.02953  1.26368
 10241.1  11.1188  1.0  2.38462  2.02924  1.26313
 10241.8  11.1179  1  2.38404  2.02878  1.26339
 10242.6  11.1171  1.0  2.38347  2.02835  1.26493
 10243.3  11.1163  1  2.38293  2.028  1.26825
 10244.1  11.1155  1.0  2.38239  2.02754  1.27361
 10244.8  11.1146  1  2.38177  2.02715  1.28057
 10245.6  11.1138  1.0  2.38121  2.02671  1.28891
 10246.3  11.113  1  2.3807  2.02638  1.29839
 10247.1  11.1122  1.0  2.37998  2.02584  1.30833
 10247.8  11.1113  1  2.37945  2.02545  1.31778
 10248.6  11.1105  1.0  2.37884  2.02503  1.32618
 10249.3  11.1097  1  2.37822  2.02457  1.33261
 10250.1  11.1089  1.0  2.37762  2.02405  1.33661
 10250.8  11.108  1  2.37695  2.02367  1.33758
 10251.6  11.1072  1.0  2.38174  2.02768  1.33867
 10252.3  11.1064  1  2.3804  2.02666  1.33343
 10253.1  11.1056  1.0  2.37679  2.02369  1.32492
 10253.8  11.1048  1  2.37242  2.01997  1.31455
 10254.6  11.1039  1.0  2.37309  2.02059  1.30623
 10255.3  11.1031  1  2.37741  2.0244  1.29944
 10256.1  11.1023  1.0  2.37891  2.02572  1.29126
 10276.3  11.0801  1  2.36762  2.018  1.281
 10306.3  11.0475  1.0  2.35127  2.00674  1.29287
 10336.3  11.015  1  2.33445  1.99512  1.24075
 10366.3  10.9827  1.0  2.3179  1.98363  1.30946
 10396.3  10.9507  1  2.30127  1.97201  1.24508
 10426.3  10.9188  1.0  2.2848  1.96041  1.33376
 10456.3  10.8871  1  2.26822  1.94878  1.29715
 10486.3  10.8555  1.0  2.2519  1.93712  1.3002
 10516.3  10.8242  1  2.23554  1.92548  1.33225
 10546.3  10.793  1.0  2.21912  1.91374  1.30585
 10576.3  10.7621  1  2.20336  1.90237  1.34558
 10606.3  10.7313  1.0  2.18462  1.88852  1.34228
 10636.3  10.7007  1  2.17072  1.87874  1.34365
 10666.3  10.6702  1.0  2.15263  1.86522  1.3635
 10696.3  10.6399  1  2.13928  1.85597  1.3805
 10726.3  10.6098  1.0  2.12332  1.84422  1.37712
 10756.3  10.5799  1  2.10762  1.83264  1.38599
 10786.3  10.5501  1.0  2.09168  1.82091  1.39657
 10816.3  10.5205  1  2.07603  1.80918  1.42371
 10846.3  10.4911  1.0  2.06075  1.79794  1.3981
 10876.2  10.4619  1  2.04573  1.78679  1.4187
 10906.2  10.4328  1.0  2.03031  1.77524  1.43591
 10936.2  10.4038  1  2.01501  1.76367  1.45853
 10966.2  10.3751  1.0  1.99859  1.75118  1.44463
 10996.2  10.3464  1  1.98457  1.74077  1.44534
 11026.2  10.318  1.0  1.96956  1.72932  1.46682
 11056.2  10.2897  1  1.9544  1.71777  1.49403
 11086.2  10.2616  1.0  1.93915  1.70608  1.48309
 11116.2  10.2336  1  1.92432  1.69473  1.48173
 11146.2  10.2057  1.0  1.90938  1.68325  1.49843
 11176.2  10.178  1  1.89444  1.67173  1.51224
 11206.2  10.1505  1.0  1.87942  1.66002  1.52954
 11236.2  10.1231  1  1.86431  1.64829  1.52037
 11266.2  10.0959  1.0  1.84924  1.63646  1.52177
 11296.2  10.0688  1  1.83353  1.62409  1.5426
 11326.2  10.0419  1.0  1.818  1.6118  1.54645
 11356.2  10.0151  1  1.5797  1.40184  1.36677
 11386.2  9.98841  1.0  1.8007  1.59943  1.5738
 11416.2  9.9619  1  1.78571  1.58749  1.57593
 11436.2  9.9443  1  1.77532  1.57924  1.57997

File: MEX1_29688_processed.xdi
# XDI/1.0
# Mono.d_spacing: 3.13897
# Reference.Element: Ta
# ROI.start_bin: nan
# ROI.end_bin: nan
# Element.symbol: None
# Element.edge: None
# Processing.version: spec_processing_library v0.3.5
# Column.1: energy
# Column.2: bragg
# Column.3: count_time seconds
# Column.4: i0
# Column.5: i1
# Column.6: i2
# Describe.Column.1: energy - MEX1ES01ZEB01:CALC_ENERGY_EV
# Describe.Column.2: bragg - MEX1ES01ZEB01:BRAGG_WITH_OFFSET
# Describe.Column.3: count_time - MEX1ES01ZEB01:GATE_TIME_SET
# Describe.Column.4: i0 - MEX1ES01DAQ01:ch1:S:MeanValue_RBV
# Describe.Column.5: i1 - MEX1ES01DAQ01:ch2:S:MeanValue_RBV
# Describe.Column.6: i2 - MEX1ES01DAQ01:ch3:S:MeanValue_RBV
# Samples: [417, 417, 417, 417, 417, 417]
# ///
# Ta foil
#
# xdi from default mda2xdi preset for mex1.
#--------
#  energy   bragg   count_time   i0   i1   i2
 9680.38  11.7717  1.0  2.70905  2.23896  3.08588
 9710.4  11.7348  1  2.68084  2.2195  3.06959
 9740.4  11.6981  1.0  2.67276  2.21659  3.0761
 9770.4  11.6617  1  2.65427  2.20502  3.07027
 9800.39  11.6255  1.0  2.63847  2.19549  3.06661
 9830.39  11.5896  1  2.6063  2.17232  3.04182
 9860.38  11.5538  1.0  2.60205  2.1723  3.03199
 9861.12  11.553  1  2.60139  2.17191  3.03004
 9861.87  11.5521  1.0  2.60091  2.17158  3.02783
 9862.62  11.5512  1  2.6003  2.17114  3.02539
 9863.37  11.5503  1.0  2.59977  2.17081  3.02275
 9864.12  11.5494  1  2.59897  2.17026  3.01963
 9864.87  11.5485  1.0  2.5987  2.17003  3.0165
 9865.62  11.5476  1  2.59804  2.16957  3.01255
 9866.37  11.5467  1.0  2.59746  2.16922  3.00819
 9867.12  11.5458  1  2.59693  2.16885  3.00339
 9867.87  11.5449  1.0  2.59635  2.16846  2.99749
 9868.62  11.5441  1  2.59591  2.16813  2.99098
 9869.37  11.5432  1.0  2.59528  2.16767  2.98308
 9870.12  11.5423  1  2.59471  2.16724  2.9735
 9870.87  11.5414  1.0  2.59409  2.16691  2.96203
 9871.62  11.5405  1  2.59357  2.16653  2.94785
 9872.37  11.5396  1.0  2.59306  2.16619  2.93
 9873.12  11.5387  1  2.59249  2.16583  2.90703
 9873.87  11.5378  1.0  2.59182  2.16533  2.8766
 9874.62  11.5369  1  2.59122  2.16495  2.83703
 9875.37  11.5361  1.0  2.59062  2.16456  2.78365
 9876.12  11.5352  1  2.59021  2.16425  2.71243
 9876.87  11.5343  1.0  2.59564  2.16891  2.62778
 9877.62  11.5334  1  2.59504  2.16853  2.51896
 9878.37  11.5325  1.0  2.59457  2.16817  2.399
 9879.12  11.5316  1  2.594  2.16774  2.27532
 9879.87  11.5307  1.0  2.59351  2.16742  2.16212
 9880.62  11.5298  1  2.59292  2.16704  2.07898
 9881.37  11.529  1.0  2.59228  2.16657  2.04162
 9882.12  11.5281  1  2.59169  2.16615  2.05274
 9882.87  11.5272  1.0  2.59106  2.16575  2.10101
 9883.62  11.5263  1  2.59055  2.16534  2.16804
 9884.37  11.5254  1.0  2.59001  2.16506  2.23712
 9885.12  11.5245  1  2.58931  2.16459  2.29879
 9885.87  11.5236  1.0  2.58898  2.16426  2.34967
 9886.62  11.5227  1  2.58827  2.16386  2.38956
 9887.37  11.5219  1.0  2.58777  2.1634  2.41963
 9888.12  11.521  1  2.58703  2.16301  2.44217
 9888.87  11.5201  1.0  2.58662  2.16278  2.45951
 9889.62  11.5192  1  2.58609  2.16245  2.47342
 9890.37  11.5183  1.0  2.58551  2.16199  2.48567
 9891.12  11.5174  1  2.58463  2.16141  2.49691
 9891.87  11.5165  1.0  2.5843  2.16109  2.50881
 9892.62  11.5157  1  2.58358  2.16061  2.5206
 9893.37  11.5148  1.0  2.58325  2.16041  2.53285
 9894.12  11.5139  1  2.58271  2.16003  2.54402
 9894.87  11.513  1.0  2.58211  2.15971  2.55466
 9895.62  11.5121  1  2.58155  2.1593  2.56376
 9896.36  11.5112  1.0  2.58087  2.15883  2.57151
 9897.12  11.5104  1  2.58047  2.15849  2.57799
 9897.87  11.5095  1.0  2.57975  2.15804  2.58338
 9898.62  11.5086  1  2.57926  2.15772  2.58855
 9899.37  11.5077  1.0  2.57862  2.15725  2.59359
 9900.12  11.5068  1  2.5782  2.15699  2.59842
 9900.87  11.5059  1.0  2.57749  2.15655  2.60278
 9901.61  11.5051  1  2.57699  2.15613  2.60634
 9902.36  11.5042  1.0  2.57638  2.15576  2.60877
 9903.12  11.5033  1  2.57569  2.15533  2.6103
 9903.86  11.5024  1.0  2.57521  2.15493  2.61128
 9904.62  11.5015  1  2.57466  2.15453  2.61166
 9905.36  11.5006  1.0  2.57402  2.15411  2.61222
 9906.11  11.4998  1  2.57352  2.15376  2.61308
 9906.86  11.4989  1.0  2.57275  2.15321  2.61399
 9907.61  11.498  1  2.57238  2.15291  2.61576
 9908.36  11.4971  1.0  2.57174  2.15262  2.61716
 9909.11  11.4962  1  2.57133  2.15225  2.61828
 9909.86  11.4953  1.0  2.57529  2.15566  2.62338
 9910.61  11.4945  1  2.57614  2.15644  2.62486
 9911.36  11.4936  1.0  2.57579  2.15632  2.62476
 9912.11  11.4927  1  2.57494  2.15565  2.62399
 9912.86  11.4918  1.0  2.57463  2.15547  2.62365
 9913.61  11.4909  1  2.57404  2.15504  2.62324
 9914.36  11.4901  1.0  2.5735  2.15473  2.62343
 9915.11  11.4892  1  2.57289  2.15423  2.62374
 9915.86  11.4883  1.0  2.57235  2.1539  2.62477
 9916.61  11.4874  1  2.57169  2.15345  2.62646
 9917.36  11.4865  1.0  2.57125  2.1531  2.62839
 9918.11  11.4857  1  2.57062  2.15271  2.63061
 9918.86  11.4848  1.0  2.57007  2.15234  2.63286
 9919.61  11.4839  1  2.56953  2.15192  2.63477
 9920.36  11.483  1.0  2.56893  2.15154  2.63631
 9921.11  11.4821  1  2.56829  2.15117  2.63724
 9921.86  11.4813  1.0  2.56773  2.15073  2.63716
 9922.61  11.4804  1  2.56718  2.15034  2.63648
 9923.36  11.4795  1.0  2.56659  2.14993  2.63528
 9924.11  11.4786  1  2.56612  2.14956  2.63339
 9924.86  11.4777  1.0  2.56549  2.14919  2.63111
 9925.61  11.4769  1  2.56494  2.14875  2.62871
 9926.36  11.476  1.0  2.56431  2.14838  2.62631
 9927.11  11.4751  1  2.56375  2.148  2.624
 9927.86  11.4742  1.0  2.56311  2.14748  2.62157
 9928.61  11.4733  1  2.5627  2.14723  2.61952
 9929.36  11.4725  1.0  2.56207  2.14681  2.61744
 9930.11  11.4716  1  2.56164  2.14644  2.61601
 9950.37  11.4479  1.0  2.54664  2.13627  2.60795
 9980.36  11.4131  1  2.45509  2.06262  2.53263
 10010.4  11.3784  1.0  2.51699  2.11788  2.60115
 10040.4  11.3439  1  2.49866  2.1057  2.60284
 10070.3  11.3097  1.0  2.48142  2.09425  2.59083
 10100.3  11.2757  1  2.46423  2.08289  2.59054
 10130.3  11.2419  1.0  2.44694  2.07121  2.57602
 10160.3  11.2082  1  2.42991  2.05988  2.58193
 10190.3  11.1748  1.0  2.41271  2.04821  2.56799
 10220.3  11.1416  1  2.39482  2.03587  2.56662
 10250.3  11.1086  1.0  2.37777  2.02413  2.56047
 10280.3  11.0758  1  2.35311  2.00599  2.54456
 10310.3  11.0431  1.0  2.3448  2.0015  2.55057
 10340.3  11.0107  1  2.32791  1.98981  2.54451
 10370.3  10.9784  1.0  2.31136  1.97826  2.53695
 10400.3  10.9464  1  2.30035  1.97148  2.5373
 10430.3  10.9145  1.0  2.28378  1.95982  2.53455
 10460.3  10.8828  1  2.26719  1.94814  2.52523
 10490.3  10.8513  1.0  2.25078  1.93636  2.51868
 10520.3  10.82  1  2.23434  1.92479  2.51331
 10550.3  10.7889  1.0  2.21776  1.91279  2.50795
 10580.3  10.7579  1  2.20184  1.90137  2.49915
 10610.3  10.7272  1.0  2.18349  1.88782  2.48929
 10640.3  10.6966  1  2.16925  1.87778  2.48616
 10670.3  10.6662  1.0  2.14347  1.85761  2.4685
 10700.3  10.6359  1  2.13758  1.85469  2.47098
 10730.3  10.6058  1.0  2.12163  1.843  2.46355
 10760.3  10.5759  1  2.10576  1.83127  2.4562
 10790.3  10.5462  1.0  2.08968  1.81938  2.44939
 10820.3  10.5166  1  2.07452  1.80813  2.44151
 10850.3  10.4872  1.0  2.05812  1.79587  2.43174
 10880.2  10.458  1  2.04343  1.78497  2.42535
 10910.2  10.4289  1.0  2.02784  1.77328  2.41723
 10940.2  10.4  1  2.01257  1.7618  2.40938
 10970.2  10.3712  1.0  1.99709  1.75002  2.40044
 11000.2  10.3426  1  1.9818  1.73847  2.39174
 11030.2  10.3142  1.0  1.9665  1.72687  2.38331
 11060.2  10.2859  1  1.95141  1.71532  2.37467
 11090.2  10.2578  1.0  1.93429  1.70203  2.36339
 11110.2  10.2392  1.0  1.92445  1.69454  2.3553