Folder: xdiProc (part 5)

File: MEX1_29698_processed.xdi
# XDI/1.0
# Mono.d_spacing: 3.13897
# Reference.Element: Fe
# ROI.start_bin: nan
# ROI.end_bin: nan
# Element.symbol: None
# Element.edge: None
# Processing.version: spec_processing_library v0.3.5
# Column.1: energy
# Column.2: bragg
# Column.3: count_time seconds
# Column.4: i0
# Column.5: i1
# Column.6: i2
# Describe.Column.1: energy - MEX1ES01ZEB01:CALC_ENERGY_EV
# Describe.Column.2: bragg - MEX1ES01ZEB01:BRAGG_WITH_OFFSET
# Describe.Column.3: count_time - MEX1ES01ZEB01:GATE_TIME_SET
# Describe.Column.4: i0 - MEX1ES01DAQ01:ch1:S:MeanValue_RBV
# Describe.Column.5: i1 - MEX1ES01DAQ01:ch2:S:MeanValue_RBV
# Describe.Column.6: i2 - MEX1ES01DAQ01:ch3:S:MeanValue_RBV
# Samples: [417, 417, 417, 417, 417, 417]
# ///
# Fe foil
#
# xdi from default mda2xdi preset for mex1.
#--------
#  energy   bragg   count_time   i0   i1   i2
 6911.69  16.6029  1.0  4.78682  2.83134  1.94071
 6941.7  16.529  1  4.7653  2.83792  1.97212
 6971.7  16.4559  1.0  4.7438  2.84417  2.00308
 7001.69  16.3834  1  4.72202  2.84994  2.03377
 7031.69  16.3115  1.0  4.6998  2.85509  2.06341
 7061.69  16.2403  1  4.678  2.86007  2.09109
 7091.69  16.1697  1.0  4.6528  2.86257  2.106
 7092.43  16.168  1  4.65195  2.86248  2.10572
 7093.18  16.1662  1.0  4.65119  2.86248  2.10544
 7093.93  16.1645  1  4.65042  2.86243  2.10501
 7094.68  16.1627  1.0  4.64978  2.86248  2.10457
 7095.43  16.161  1  4.6488  2.86228  2.10384
 7096.18  16.1592  1.0  4.64815  2.86237  2.10327
 7096.93  16.1575  1  4.64726  2.8623  2.1023
 7097.68  16.1557  1.0  4.64648  2.86224  2.10131
 7098.43  16.154  1  4.64569  2.8622  2.10011
 7099.18  16.1522  1.0  4.64477  2.86208  2.09872
 7099.93  16.1505  1  4.6438  2.86197  2.09705
 7100.68  16.1487  1.0  4.6431  2.86199  2.09517
 7101.43  16.1469  1  4.64238  2.86191  2.09286
 7102.18  16.1452  1.0  4.6416  2.86188  2.09018
 7102.93  16.1434  1  4.64092  2.86191  2.08712
 7103.68  16.1417  1.0  4.63991  2.86178  2.08315
 7104.43  16.1399  1  4.63915  2.86174  2.0784
 7105.18  16.1382  1.0  4.63825  2.86158  2.07243
 7105.93  16.1364  1  4.6374  2.86154  2.06484
 7106.68  16.1347  1.0  4.63669  2.86151  2.05466
 7107.43  16.1329  1  4.63569  2.8613  2.04046
 7108.18  16.1312  1.0  4.63487  2.86128  2.01918
 7108.93  16.1294  1  4.634  2.8611  1.98333
 7109.68  16.1277  1.0  4.63288  2.86092  1.90947
 7110.43  16.126  1  4.63163  2.86059  1.73463
 7111.18  16.1242  1.0  4.62997  2.85999  1.4709
 7111.93  16.1225  1  4.6285  2.85955  1.28451
 7112.68  16.1207  1.0  4.62704  2.85916  1.17541
 7113.43  16.119  1  4.62592  2.85883  1.09275
 7114.18  16.1172  1.0  4.62475  2.85856  1.03261
 7114.93  16.1155  1  4.62358  2.85825  1.00035
 7115.68  16.1137  1.0  4.62278  2.85812  0.984259
 7116.43  16.112  1  4.62162  2.85791  0.958945
 7117.18  16.1102  1.0  4.62032  2.85758  0.89865
 7117.93  16.1085  1  4.61894  2.85714  0.809563
 7118.68  16.1068  1.0  4.62799  2.86323  0.720888
 7119.43  16.105  1  4.6264  2.86266  0.635408
 7120.18  16.1033  1.0  4.62496  2.86211  0.556934
 7120.93  16.1015  1  4.62325  2.86158  0.493468
 7121.68  16.0998  1.0  4.62182  2.86109  0.447601
 7122.43  16.098  1  4.62015  2.86049  0.413951
 7123.18  16.0963  1.0  4.61882  2.8601  0.388061
 7123.93  16.0946  1  4.61726  2.85954  0.367162
 7124.68  16.0928  1.0  4.61593  2.85918  0.349548
 7125.43  16.0911  1  4.61443  2.85864  0.333363
 7126.18  16.0893  1.0  4.61286  2.85816  0.317058
 7126.93  16.0876  1  4.61163  2.85786  0.299093
 7127.68  16.0859  1.0  4.61011  2.85726  0.278818
 7128.43  16.0841  1  4.60888  2.85692  0.258069
 7129.18  16.0824  1.0  4.60741  2.85649  0.239903
 7129.93  16.0807  1  4.60632  2.85621  0.227554
 7130.68  16.0789  1.0  4.60545  2.85613  0.224464
 7131.43  16.0772  1  4.60449  2.85602  0.231334
 7132.18  16.0754  1.0  4.60392  2.85601  0.245444
 7132.93  16.0737  1  4.60325  2.85606  0.262138
 7133.68  16.072  1.0  4.60269  2.8562  0.277966
 7134.43  16.0702  1  4.6021  2.8562  0.290749
 7135.18  16.0685  1.0  4.60152  2.85628  0.299321
 7135.93  16.0668  1  4.60086  2.85629  0.303513
 7136.68  16.065  1.0  4.59993  2.85616  0.303779
 7137.43  16.0633  1  4.59923  2.85623  0.300519
 7138.18  16.0616  1.0  4.59849  2.85615  0.294776
 7138.93  16.0598  1  4.59764  2.8561  0.288202
 7139.68  16.0581  1.0  4.5969  2.85597  0.282405
 7140.43  16.0564  1  4.59605  2.8559  0.27859
 7141.18  16.0546  1.0  4.59531  2.85592  0.27729
 7141.93  16.0529  1  4.59427  2.85575  0.278193
 7142.68  16.0512  1.0  4.5935  2.85569  0.280339
 7143.43  16.0494  1  4.59264  2.85556  0.282362
 7144.18  16.0477  1.0  4.59192  2.85559  0.283084
 7144.93  16.046  1  4.59109  2.85546  0.281585
 7145.68  16.0443  1.0  4.59013  2.85529  0.277651
 7146.43  16.0425  1  4.58947  2.85527  0.271582
 7147.18  16.0408  1.0  4.58845  2.85518  0.264359
 7147.93  16.0391  1  4.58763  2.8551  0.25721
 7148.68  16.0373  1.0  4.58681  2.85494  0.251275
 7149.43  16.0356  1  4.58611  2.855  0.24695
 7150.18  16.0339  1.0  4.5851  2.85472  0.243942
 7150.93  16.0322  1  4.58454  2.85485  0.241706
 7151.68  16.0304  1.0  4.5947  2.86167  0.240403
 7152.43  16.0287  1  4.59387  2.86152  0.23894
 7153.18  16.027  1.0  4.59293  2.86133  0.238383
 7153.93  16.0253  1  4.59214  2.86129  0.238751
 7154.67  16.0235  1.0  4.59132  2.86129  0.240007
 7155.43  16.0218  1  4.59041  2.86104  0.241622
 7156.18  16.0201  1.0  4.58974  2.86115  0.243215
 7156.93  16.0184  1  4.58897  2.86109  0.244489
 7157.68  16.0166  1.0  4.5882  2.86103  0.245229
 7158.43  16.0149  1  4.58723  2.86086  0.245536
 7159.18  16.0132  1.0  4.58652  2.8608  0.245714
 7159.92  16.0115  1  4.58576  2.86077  0.245962
 7160.67  16.0098  1.0  4.58495  2.86067  0.246597
 7161.42  16.008  1  4.58395  2.86048  0.24758
 7181.67  15.9617  4.0  4.5668  2.86126  0.309592
 7211.67  15.8935  4  4.54141  2.86215  0.289619
 7241.67  15.826  4.0  4.5125  2.8604  0.339805
 7271.67  15.759  4  4.49243  2.86388  0.290545
 7301.66  15.6926  4.0  4.46677  2.86348  0.32806
 7331.66  15.6267  4  4.44075  2.86249  0.354506
 7361.66  15.5614  4.0  4.41378  2.8605  0.300517
 7391.65  15.4967  4  4.38778  2.85878  0.384343
 7421.65  15.4325  4.0  4.36068  2.85611  0.382708
 7451.65  15.3688  4  4.29417  2.82696  0.362282
 7481.64  15.3057  4.0  4.31887  2.85771  0.403425
 7511.64  15.2431  4  4.29131  2.85361  0.421884
 7541.64  15.181  4.0  4.26402  2.84938  0.429335
 7571.63  15.1194  4  4.23659  2.84473  0.431231
 7601.63  15.0583  4.0  4.17688  2.81802  0.453494
 7631.63  14.9977  4  4.181  2.83396  0.468742
 7661.625  14.9377  4.0  4.15302  2.82792  0.485422
 7691.62  14.8781  4  4.12443  2.82118  0.489746
 7721.62  14.8189  4.0  4.08202  2.80463  0.507079
 7751.62  14.7603  4  4.07097  2.80933  0.520858
 7781.61  14.7021  4.0  4.04345  2.80232  0.536266
 7811.61  14.6444  4  4.01593  2.79513  0.546208
 7841.61  14.5871  4.0  3.96096  2.76844  0.553034
 7871.6  14.5303  4  3.96875  2.7853  0.572176
 7901.6  14.4739  4.0  3.94135  2.77728  0.58638
 7931.6  14.418  4  3.91288  2.76823  0.598933
 7961.59  14.3625  4.0  3.88695  2.76068  0.609465
 7991.59  14.3074  4  3.85967  2.75194  0.620458
 8021.59  14.2528  4.0  3.8322  2.74278  0.632948
 8051.58  14.1986  4  3.80384  2.73269  0.645827
 8081.58  14.1448  4.0  3.78252  2.72738  0.660108
 8111.58  14.0914  4  3.75399  2.71669  0.670061
 8141.57  14.0384  4.0  3.72686  2.70673  0.681546
 8171.57  13.9858  4  3.70008  2.69681  0.693183
 8201.57  13.9336  4.0  3.67355  2.68679  0.70547
 8231.57  13.8818  4  3.65572  2.68295  0.719629
 8261.56  13.8304  4.0  3.6299  2.67297  0.731368
 8291.56  13.7794  4  3.60401  2.66271  0.742915
 8321.55  13.7288  4.0  3.5789  2.65284  0.754539
 8341.55  13.6952  4.0  3.56127  2.64547  0.762223

File: MEX1_29699_processed.xdi
# XDI/1.0
# Mono.d_spacing: 3.13897
# Reference.Element: Mn
# ROI.start_bin: nan
# ROI.end_bin: nan
# Element.symbol: None
# Element.edge: None
# Processing.version: spec_processing_library v0.3.5
# Column.1: energy
# Column.2: bragg
# Column.3: count_time seconds
# Column.4: i0
# Column.5: i1
# Column.6: i2
# Describe.Column.1: energy - MEX1ES01ZEB01:CALC_ENERGY_EV
# Describe.Column.2: bragg - MEX1ES01ZEB01:BRAGG_WITH_OFFSET
# Describe.Column.3: count_time - MEX1ES01ZEB01:GATE_TIME_SET
# Describe.Column.4: i0 - MEX1ES01DAQ01:ch1:S:MeanValue_RBV
# Describe.Column.5: i1 - MEX1ES01DAQ01:ch2:S:MeanValue_RBV
# Describe.Column.6: i2 - MEX1ES01DAQ01:ch3:S:MeanValue_RBV
# Samples: [417, 417, 417, 417, 417, 417]
# ///
# Mn foil
#
# xdi from default mda2xdi preset for mex1.
#--------
#  energy   bragg   count_time   i0   i1   i2
 6338.74  18.1535  1.0  2.53697  2.5693  3.36522
 6368.75  18.065  1  2.53145  2.5887  3.45552
 6398.75  17.9774  1.0  2.52565  2.60762  3.54623
 6428.74  17.8907  1  2.51942  2.62566  3.63642
 6458.74  17.8048  1.0  2.51187  2.64195  3.72472
 6488.74  17.7197  1  2.50533  2.65896  3.81294
 6518.73  17.6355  1.0  2.49845  2.67532  3.89135
 6519.48  17.6334  1  2.498  2.67546  3.89255
 6520.23  17.6313  1.0  2.49769  2.67568  3.89361
 6520.98  17.6292  1  2.4975  2.67602  3.89486
 6521.73  17.6271  1.0  2.49705  2.67623  3.8958
 6522.48  17.6251  1  2.49668  2.67636  3.89668
 6523.23  17.623  1.0  2.49646  2.67677  3.8977
 6523.98  17.6209  1  2.49622  2.67706  3.89859
 6524.73  17.6188  1.0  2.49589  2.67728  3.89913
 6525.48  17.6167  1  2.50085  2.68313  3.90778
 6526.23  17.6146  1.0  2.50049  2.68344  3.90803
 6526.98  17.6125  1  2.50018  2.68366  3.90794
 6527.73  17.6104  1.0  2.49995  2.68402  3.90781
 6528.48  17.6083  1  2.49961  2.68419  3.90729
 6529.23  17.6062  1.0  2.49927  2.68445  3.9061
 6529.98  17.6042  1  2.49894  2.6847  3.90449
 6530.73  17.6021  1.0  2.49856  2.68495  3.90232
 6531.48  17.6  1  2.49828  2.68523  3.89936
 6532.23  17.5979  1.0  2.498  2.68549  3.89529
 6532.98  17.5958  1  2.49756  2.68565  3.88907
 6533.73  17.5937  1.0  2.49742  2.68604  3.88069
 6534.48  17.5916  1  2.49702  2.68619  3.86733
 6535.23  17.5895  1.0  2.49668  2.68644  3.84578
 6535.98  17.5875  1  2.49638  2.6867  3.80451
 6536.73  17.5854  1.0  2.4961  2.68698  3.70445
 6537.48  17.5833  1  2.49585  2.6872  3.46912
 6538.23  17.5812  1.0  2.49543  2.68743  3.21555
 6538.98  17.5791  1  2.49506  2.6876  3.06127
 6539.73  17.5771  1.0  2.4948  2.6879  2.96305
 6540.48  17.575  1  2.49443  2.68808  2.89479
 6541.23  17.5729  1.0  2.49417  2.68838  2.86945
 6541.98  17.5708  1  2.49376  2.68857  2.84977
 6542.73  17.5687  1.0  2.49346  2.68885  2.79482
 6543.48  17.5667  1  2.49328  2.68918  2.72748
 6544.23  17.5646  1.0  2.49297  2.6894  2.6702
 6544.98  17.5625  1  2.49258  2.68959  2.60819
 6545.73  17.5604  1.0  2.49221  2.6898  2.52307
 6546.48  17.5583  1  2.49185  2.68992  2.42229
 6547.23  17.5563  1.0  2.49155  2.69018  2.31622
 6547.98  17.5542  1  2.49131  2.69054  2.21078
 6548.73  17.5521  1.0  2.49095  2.69069  2.11046
 6549.48  17.55  1  2.49053  2.69086  2.01752
 6550.23  17.548  1.0  2.49018  2.69107  1.93416
 6550.98  17.5459  1  2.48992  2.69135  1.86106
 6551.73  17.5438  1.0  2.48946  2.6915  1.79766
 6552.48  17.5417  1  2.48923  2.69179  1.7421
 6553.23  17.5397  1.0  2.48888  2.69199  1.69576
 6553.98  17.5376  1  2.48857  2.69221  1.66366
 6554.73  17.5355  1.0  2.48829  2.69253  1.64812
 6555.48  17.5335  1  2.49354  2.69881  1.65185
 6556.23  17.5314  1.0  2.49326  2.69902  1.66702
 6556.98  17.5293  1  2.49293  2.69936  1.69226
 6557.73  17.5272  1.0  2.49261  2.69947  1.72031
 6558.48  17.5252  1  2.49215  2.6997  1.74818
 6559.23  17.5231  1.0  2.49203  2.7  1.77322
 6559.98  17.521  1  2.49172  2.7002  1.79222
 6560.73  17.519  1.0  2.49135  2.70042  1.80373
 6561.48  17.5169  1  2.49094  2.70056  1.80911
 6562.23  17.5148  1.0  2.4906  2.70077  1.81115
 6562.98  17.5128  1  2.49028  2.70105  1.81127
 6563.73  17.5107  1.0  2.49006  2.70137  1.80981
 6564.48  17.5086  1  2.48978  2.70173  1.80761
 6565.23  17.5066  1.0  2.48938  2.70182  1.80518
 6565.98  17.5045  1  2.48905  2.70203  1.80317
 6566.73  17.5024  1.0  2.4888  2.70234  1.80201
 6567.48  17.5004  1  2.48842  2.70253  1.80188
 6568.23  17.4983  1.0  2.48806  2.70263  1.80303
 6568.98  17.4963  1  2.48773  2.7029  1.80503
 6569.73  17.4942  1.0  2.48748  2.70316  1.80768
 6570.48  17.4921  1  2.48712  2.70336  1.81061
 6571.23  17.4901  1.0  2.48691  2.70369  1.81365
 6571.98  17.488  1  2.48655  2.70387  1.81601
 6572.73  17.486  1.0  2.4864  2.70429  1.81752
 6573.48  17.4839  1  2.48599  2.70441  1.8174
 6574.23  17.4818  1.0  2.48567  2.70463  1.816
 6574.98  17.4798  1  2.48538  2.70496  1.81382
 6575.73  17.4777  1.0  2.48503  2.7052  1.81098
 6576.48  17.4757  1  2.48468  2.70531  1.80811
 6577.23  17.4736  1.0  2.48424  2.70538  1.805
 6577.98  17.4715  1  2.484  2.70572  1.80174
 6578.73  17.4695  1.0  2.48381  2.70605  1.79818
 6579.48  17.4674  1  2.48336  2.70618  1.79407
 6580.23  17.4654  1.0  2.48319  2.70653  1.78958
 6580.98  17.4633  1  2.48294  2.70675  1.78452
 6581.73  17.4613  1.0  2.48061  2.70487  1.77794
 6582.48  17.4592  1  2.47594  2.70023  1.77015
 6583.23  17.4572  1.0  2.47925  2.70454  1.76914
 6583.98  17.4551  1  2.48079  2.70671  1.76858
 6584.73  17.4531  1.0  2.48067  2.70724  1.76909
 6585.48  17.451  1  2.48041  2.70752  1.77196
 6586.23  17.449  1.0  2.48019  2.7078  1.77747
 6586.98  17.4469  1  2.47988  2.70806  1.78493
 6587.73  17.4449  1.0  2.48544  2.71475  1.79782
 6588.48  17.4428  1  2.4851  2.71493  1.80698
 6608.73  17.3877  1.0  2.4791  2.72377  1.87208
 6638.72  17.3066  1  2.47104  2.73724  1.90161
 6668.72  17.2263  1.0  2.46246  2.74994  1.97507
 6698.72  17.1468  1  2.45358  2.76174  2.03624
 6728.72  17.068  1.0  2.44435  2.77295  2.09167
 6758.72  16.9899  1  2.43503  2.78362  2.15402
 6788.71  16.9126  1.0  2.42618  2.79436  2.23362
 6818.71  16.836  1  2.3241  2.69637  2.18974
 6848.71  16.76  1.0  2.4028  2.80803  2.33768
 6878.71  16.6848  1  2.39324  2.81687  2.40833
 6908.7  16.6103  1.0  2.38297  2.82449  2.46292
 6938.7  16.5364  1  2.37197  2.83091  2.52079
 6968.7  16.4632  1.0  2.36084  2.83661  2.58188
 6998.69  16.3906  1  2.3496  2.84186  2.64151
 7028.69  16.3187  1.0  2.33818  2.84655  2.69624
 7058.69  16.2474  1  2.32681  2.8509  2.75389
 7088.69  16.1768  1.0  2.31384  2.85292  2.81097
 7118.68  16.1067  1  2.29874  2.85192  2.86273
 7148.68  16.0373  1.0  2.28259  2.8491  2.91106
 7178.68  15.9685  1  2.26989  2.85018  2.96581
 7208.68  15.9003  1.0  2.2573  2.85104  3.02045
 7238.67  15.8327  1  2.22355  2.82465  3.04427
 7268.67  15.7656  1.0  2.21755  2.83305  3.10466
 7298.66  15.6992  1  2.21931  2.85133  3.17642
 7328.66  15.6333  1.0  2.20615  2.85001  3.22728
 7358.66  15.5679  1  2.1924  2.84754  3.27694
 7388.66  15.5031  1.0  2.17935  2.84571  3.32657
 7418.65  15.4389  1  2.16579  2.84274  3.37491
 7448.65  15.3752  1.0  2.15019  2.83689  3.42021
 7478.65  15.312  1  2.13995  2.83765  3.47353
 7508.65  15.2493  1.0  2.12621  2.83354  3.52056
 7538.64  15.1872  1  2.11271  2.82923  3.56747
 7568.64  15.1255  1.0  2.09885  2.82426  3.61324
 7598.63  15.0644  1  2.08556  2.81963  3.6596
 7628.63  15.0038  1.0  2.0709  2.813  3.70318
 7658.63  14.9436  1  2.06157  2.81308  3.75548
 7688.62  14.884  1.0  2.04705  2.80588  3.79765
 7718.62  14.8248  1  2.03378  2.80023  3.84151
 7748.62  14.7661  1.0  2.02045  2.79402  3.88474
 7768.62  14.7272  1.0  2.01101  2.78907  3.91214

File: MEX1_29700_processed.xdi
# XDI/1.0
# Mono.d_spacing: 3.13897
# Reference.Element: Cr
# ROI.start_bin: nan
# ROI.end_bin: nan
# Element.symbol: None
# Element.edge: None
# Processing.version: spec_processing_library v0.3.5
# Column.1: energy
# Column.2: bragg
# Column.3: count_time seconds
# Column.4: i0
# Column.5: i1
# Column.6: i2
# Describe.Column.1: energy - MEX1ES01ZEB01:CALC_ENERGY_EV
# Describe.Column.2: bragg - MEX1ES01ZEB01:BRAGG_WITH_OFFSET
# Describe.Column.3: count_time - MEX1ES01ZEB01:GATE_TIME_SET
# Describe.Column.4: i0 - MEX1ES01DAQ01:ch1:S:MeanValue_RBV
# Describe.Column.5: i1 - MEX1ES01DAQ01:ch2:S:MeanValue_RBV
# Describe.Column.6: i2 - MEX1ES01DAQ01:ch3:S:MeanValue_RBV
# Samples: [417, 417, 417, 417, 417, 417]
# ///
# Cr foil
#
# xdi from default mda2xdi preset for mex1.
#--------
#  energy   bragg   count_time   i0   i1   i2
 5788.79  19.9477  1  2.56398  2.09  0.952808
 5818.79  19.8406  1.0  2.56515  2.12053  1.01274
 5848.79  19.7346  1  2.5649  2.14974  1.07463
 5878.79  19.6297  1.0  2.56149  2.17596  1.1372
 5908.78  19.526  1  2.30773  1.98584  1.08451
 5938.78  19.4234  1.0  2.6012  2.26824  1.29179
 5968.78  19.3219  1  2.58891  2.28632  1.35372
 5969.53  19.3194  1.0  2.58842  2.2866  1.35509
 5970.28  19.3169  1  2.58778  2.28669  1.35628
 5971.03  19.3143  1.0  2.58729  2.287  1.35767
 5971.78  19.3118  1  2.58673  2.28723  1.35875
 5972.53  19.3093  1.0  2.58634  2.28756  1.36001
 5973.28  19.3068  1  2.58598  2.28802  1.36133
 5974.03  19.3043  1.0  2.58553  2.28824  1.3625
 5974.78  19.3017  1  2.58511  2.28866  1.36351
 5975.53  19.2992  1.0  2.58457  2.28887  1.36468
 5976.28  19.2967  1  2.58412  2.2892  1.36554
 5977.03  19.2942  1.0  2.58378  2.28963  1.3666
 5977.78  19.2917  1  2.58349  2.29007  1.3675
 5978.53  19.2892  1.0  2.58316  2.29046  1.36826
 5979.28  19.2866  1  2.58276  2.29084  1.36896
 5980.03  19.2841  1.0  2.58234  2.29119  1.36957
 5980.78  19.2816  1  2.58211  2.29168  1.36994
 5981.53  19.2791  1.0  2.58177  2.29208  1.37007
 5982.28  19.2766  1  2.58139  2.29244  1.36986
 5983.03  19.2741  1.0  2.5814  2.29313  1.36936
 5983.78  19.2716  1  2.5867  2.29856  1.37129
 5984.53  19.269  1.0  2.58631  2.29901  1.36929
 5985.28  19.2665  1  2.58606  2.29946  1.36596
 5986.03  19.264  1.0  2.5857  2.2999  1.36037
 5986.78  19.2615  1  2.58544  2.30039  1.35005
 5987.53  19.259  1.0  2.58513  2.30072  1.32798
 5988.28  19.2565  1  2.58471  2.30109  1.2662
 5989.03  19.254  1.0  2.58431  2.30145  1.12908
 5989.78  19.2515  1  2.58397  2.30182  1.02835
 5990.53  19.249  1.0  2.58352  2.30217  0.96281
 5991.28  19.2465  1  2.58328  2.30268  0.914125
 5992.03  19.244  1.0  2.58283  2.30304  0.870935
 5992.78  19.2415  1  2.58259  2.30351  0.836976
 5993.53  19.239  1.0  2.58233  2.30403  0.81557
 5994.28  19.2365  1  2.58189  2.30432  0.806889
 5995.03  19.234  1.0  2.58174  2.30488  0.807225
 5995.78  19.2315  1  2.58139  2.30532  0.80564
 5996.53  19.229  1.0  2.58109  2.30578  0.784914
 5997.28  19.2265  1  2.58077  2.3062  0.737549
 5998.03  19.224  1.0  2.58043  2.30656  0.679462
 5998.78  19.2215  1  2.58013  2.30703  0.624627
 5999.53  19.219  1.0  2.57965  2.30738  0.577143
 6000.28  19.2165  1  2.57952  2.30785  0.540549
 6001.03  19.214  1.0  2.57913  2.30822  0.512591
 6001.78  19.2115  1  2.57883  2.30866  0.489254
 6002.53  19.209  1.0  2.57845  2.30912  0.468956
 6003.28  19.2065  1  2.57812  2.30947  0.450965
 6004.03  19.204  1.0  2.57787  2.30996  0.434346
 6004.78  19.2015  1  2.57758  2.31039  0.41785
 6005.53  19.199  1.0  2.57724  2.31077  0.401367
 6006.28  19.1965  1  2.57703  2.31134  0.386117
 6007.03  19.194  1.0  2.57667  2.3117  0.37193
 6007.78  19.1916  1  2.57646  2.31217  0.357306
 6008.53  19.1891  1.0  2.57617  2.31266  0.345685
 6009.28  19.1866  1  2.57597  2.31312  0.343494
 6010.02  19.1841  1.0  2.57578  2.31367  0.353349
 6010.78  19.1816  1  2.57544  2.31414  0.371406
 6011.53  19.1791  1.0  2.57528  2.31464  0.392482
 6012.28  19.1766  1  2.57518  2.31533  0.41184
 6013.03  19.1741  1.0  2.57499  2.31581  0.426137
 6013.77  19.1717  1  2.57465  2.31623  0.433756
 6014.52  19.1692  1.0  2.57448  2.3168  0.434986
 6015.27  19.1667  1  2.57426  2.31723  0.431159
 6016.02  19.1642  1.0  2.58017  2.32337  0.424804
 6016.77  19.1617  1  2.58006  2.3239  0.41592
 6017.52  19.1592  1.0  2.5798  2.32441  0.407493
 6018.27  19.1568  1  2.57952  2.32487  0.401538
 6019.02  19.1543  1.0  2.57942  2.32547  0.3989
 6019.77  19.1518  1  2.57909  2.32589  0.399425
 6020.52  19.1493  1.0  2.57901  2.32643  0.402907
 6021.27  19.1469  1  2.57878  2.32691  0.40774
 6022.02  19.1444  1.0  2.57851  2.3275  0.412656
 6022.77  19.1419  1  2.57832  2.32792  0.415856
 6023.52  19.1394  1.0  2.5781  2.32852  0.416382
 6024.27  19.1369  1  2.57777  2.32889  0.413824
 6025.02  19.1345  1.0  2.57768  2.32954  0.4089
 6025.77  19.132  1  2.57736  2.32995  0.403175
 6026.52  19.1295  1.0  2.57717  2.33048  0.397989
 6027.27  19.1271  1  2.57698  2.33103  0.394192
 6028.02  19.1246  1.0  2.57671  2.33153  0.39133
 6028.77  19.1221  1  2.57644  2.33201  0.389086
 6029.52  19.1196  1.0  2.57621  2.33247  0.387284
 6030.27  19.1172  1  2.576  2.333  0.386011
 6031.02  19.1147  1.0  2.5759  2.33356  0.385499
 6031.77  19.1122  1  2.57566  2.33401  0.385737
 6032.52  19.1098  1.0  2.57545  2.33457  0.386307
 6033.27  19.1073  1  2.5752  2.33501  0.386726
 6034.02  19.1048  1.0  2.57488  2.33541  0.386737
 6034.77  19.1024  1  2.57474  2.33603  0.386065
 6035.52  19.0999  1.0  2.57452  2.33652  0.384657
 6036.27  19.0974  1  2.57421  2.33697  0.38275
 6037.02  19.095  1.0  2.57403  2.33749  0.380629
 6037.77  19.0925  1  2.57381  2.33802  0.378646
 6038.52  19.09  1.0  2.57359  2.3384  0.377719
 6058.77  19.0238  1  2.57131  2.35518  0.468583
 6088.77  18.9265  1.0  2.56801  2.37983  0.482755
 6118.77  18.8302  1  2.56477  2.40429  0.52019
 6148.76  18.7349  1.0  2.56105  2.42787  0.530789
 6178.76  18.6406  1  2.55696  2.45086  0.563725
 6208.76  18.5472  1.0  2.55266  2.47326  0.639542
 6238.76  18.4548  1  2.54781  2.49491  0.608115
 6268.75  18.3633  1.0  2.54301  2.5161  0.70604
 6298.75  18.2728  1  2.53766  2.53662  0.754277
 6328.75  18.1831  1.0  2.5318  2.55614  0.766135
 6358.75  18.0944  1  2.52545  2.57487  0.827516
 6388.75  18.0065  1.0  2.52483  2.59909  0.888409
 6418.74  17.9195  1  2.51806  2.61666  0.931463
 6448.74  17.8333  1.0  2.51167  2.63433  0.969916
 6478.74  17.748  1  2.50257  2.64866  1.03239
 6508.73  17.6635  1.0  2.49525  2.66455  1.08144
 6538.73  17.5798  1  2.48745  2.67963  1.14085
 6568.73  17.4969  1.0  2.47916  2.69371  1.18738
 6598.73  17.4149  1  2.47025  2.70682  1.24873
 6628.73  17.3335  1.0  2.46157  2.71969  1.30287
 6658.72  17.253  1  2.45252  2.73183  1.36541
 6688.72  17.1732  1.0  2.44301  2.74292  1.42227
 6718.72  17.0942  1  2.43305  2.75331  1.47778
 6748.72  17.0159  1.0  2.42313  2.76322  1.53977
 6778.71  16.9383  1  2.41325  2.77267  1.60387
 6808.71  16.8614  1.0  2.23316  2.58462  1.55064
 6838.71  16.7853  1  2.38805  2.78451  1.72891
 6868.71  16.7098  1.0  2.37866  2.79354  1.79278
 6898.7  16.635  1  2.3676  2.80016  1.85931
 6928.7  16.5609  1.0  2.3564  2.80621  1.92836
 6958.7  16.4875  1  2.34492  2.81154  1.99885
 6988.7  16.4147  1.0  2.33297  2.81597  2.06568
 7018.69  16.3426  1  2.32111  2.82006  2.13464
 7048.69  16.2711  1.0  2.3093  2.82381  2.20525
 7078.69  16.2003  1  2.29537  2.82461  2.27576
 7108.68  16.13  1.0  2.28356  2.82763  2.34871
 7138.68  16.0604  1  2.26366  2.82008  2.38794
 7168.68  15.9914  1.0  2.25054  2.82063  2.46476
 7198.68  15.923  1  2.23704  2.82035  2.53586
 7218.67  15.8777  1  2.22814  2.82003  2.58507