Folder: xdiProc (part 6)

File: MEX1_29701_processed.xdi
# XDI/1.0
# Mono.d_spacing: 3.13897
# Reference.Element: V
# ROI.start_bin: nan
# ROI.end_bin: nan
# Element.symbol: None
# Element.edge: None
# Processing.version: spec_processing_library v0.3.5
# Column.1: energy
# Column.2: bragg
# Column.3: count_time seconds
# Column.4: i0
# Column.5: i1
# Column.6: i2
# Describe.Column.1: energy - MEX1ES01ZEB01:CALC_ENERGY_EV
# Describe.Column.2: bragg - MEX1ES01ZEB01:BRAGG_WITH_OFFSET
# Describe.Column.3: count_time - MEX1ES01ZEB01:GATE_TIME_SET
# Describe.Column.4: i0 - MEX1ES01DAQ01:ch1:S:MeanValue_RBV
# Describe.Column.5: i1 - MEX1ES01DAQ01:ch2:S:MeanValue_RBV
# Describe.Column.6: i2 - MEX1ES01DAQ01:ch3:S:MeanValue_RBV
# Samples: [417, 417, 417, 417, 417, 417]
# ///
# V foil
#
# xdi from default mda2xdi preset for mex1.
#--------
#  energy   bragg   count_time   i0   i1   i2
 5264.83  22.0315  1.0  2.44407  1.47431  2.14791
 5294.83  21.9002  1  2.45387  1.5109  2.27303
 5324.83  21.7705  1.0  2.46585  1.54912  2.4051
 5354.82  21.6423  1  2.47689  1.58695  2.54109
 5384.82  21.5157  1.0  2.48739  1.62454  2.68067
 5414.82  21.3907  1  2.49352  1.65951  2.81923
 5444.82  21.2671  1.0  2.50444  1.69772  2.95904
 5445.57  21.264  1  2.50474  1.69867  2.96226
 5446.32  21.2609  1.0  2.50472  1.69941  2.96483
 5447.07  21.2579  1  2.50481  1.70024  2.9676
 5447.82  21.2548  1.0  2.50484  1.70103  2.97006
 5448.57  21.2517  1  2.50502  1.70192  2.9729
 5449.32  21.2487  1.0  2.50507  1.70274  2.97525
 5450.07  21.2456  1  2.50527  1.7036  2.97765
 5450.82  21.2425  1.0  2.50518  1.70436  2.97973
 5451.57  21.2395  1  2.50538  1.70525  2.98182
 5452.32  21.2364  1.0  2.50546  1.7061  2.98368
 5453.07  21.2333  1  2.50559  1.70696  2.98533
 5453.82  21.2303  1.0  2.50561  1.70774  2.98682
 5454.57  21.2272  1  2.50581  1.70866  2.98796
 5455.32  21.2242  1.0  2.50577  1.70942  2.9884
 5456.07  21.2211  1  2.5059  1.71025  2.98864
 5456.82  21.218  1.0  2.50602  1.71111  2.98806
 5457.57  21.215  1  2.50613  1.71194  2.98661
 5458.32  21.2119  1.0  2.50616  1.71271  2.98361
 5459.07  21.2089  1  2.50621  1.71348  2.97882
 5459.82  21.2058  1.0  2.50627  1.71437  2.97123
 5460.57  21.2028  1  2.50638  1.71522  2.95884
 5461.32  21.1997  1.0  2.50648  1.716  2.9371
 5462.07  21.1967  1  2.50661  1.71688  2.89433
 5462.82  21.1936  1.0  2.50671  1.71772  2.78788
 5463.57  21.1906  1  2.50668  1.71847  2.43487
 5464.32  21.1875  1.0  2.50682  1.71933  1.88643
 5465.07  21.1845  1  2.50692  1.72016  1.9387
 5465.82  21.1814  1.0  2.50705  1.721  2.01993
 5466.57  21.1784  1  2.50706  1.72182  1.93788
 5467.32  21.1753  1.0  2.50716  1.72268  1.81124
 5468.07  21.1723  1  2.50721  1.72339  1.69158
 5468.82  21.1692  1.0  2.50718  1.72421  1.60809
 5469.57  21.1662  1  2.51077  1.72744  1.56781
 5470.32  21.1632  1.0  2.51347  1.73005  1.55235
 5471.07  21.1601  1  2.51362  1.73095  1.53485
 5471.82  21.1571  1.0  2.5136  1.73169  1.47567
 5472.57  21.154  1  2.51369  1.73255  1.359
 5473.32  21.151  1.0  2.51378  1.73338  1.23178
 5474.07  21.148  1  2.51384  1.73425  1.12816
 5474.82  21.1449  1.0  2.51389  1.73505  1.04926
 5475.57  21.1419  1  2.51405  1.73587  0.984853
 5476.32  21.1389  1.0  2.5141  1.73671  0.926658
 5477.07  21.1358  1  2.51423  1.73755  0.873455
 5477.82  21.1328  1.0  2.51417  1.73831  0.825973
 5478.57  21.1298  1  2.51429  1.73913  0.783513
 5479.32  21.1267  1.0  2.51423  1.73992  0.744518
 5480.07  21.1237  1  2.51443  1.74079  0.710383
 5480.82  21.1207  1.0  2.51444  1.74162  0.683111
 5481.57  21.1176  1  2.51442  1.74239  0.656438
 5482.32  21.1146  1.0  2.51454  1.74317  0.631646
 5483.07  21.1116  1  2.51462  1.74401  0.62277
 5483.82  21.1086  1.0  2.51466  1.7448  0.638368
 5484.57  21.1055  1  2.51476  1.74567  0.673212
 5485.32  21.1025  1.0  2.51481  1.74647  0.714959
 5486.07  21.0995  1  2.51494  1.74732  0.753015
 5486.81  21.0965  1.0  2.51508  1.74814  0.779288
 5487.57  21.0935  1  2.51505  1.74893  0.790752
 5488.31  21.0904  1.0  2.51518  1.74981  0.788325
 5489.06  21.0874  1  2.51516  1.75055  0.775107
 5489.81  21.0844  1.0  2.51536  1.75145  0.755285
 5490.56  21.0814  1  2.5154  1.75221  0.734248
 5491.31  21.0784  1.0  2.51541  1.75305  0.717411
 5492.06  21.0753  1  2.51563  1.75398  0.708373
 5492.81  21.0723  1.0  2.51557  1.75471  0.708013
 5493.56  21.0693  1  2.51573  1.75557  0.715093
 5494.31  21.0663  1.0  2.51573  1.75629  0.726314
 5495.06  21.0633  1  2.51583  1.75716  0.737073
 5495.81  21.0603  1.0  2.51575  1.75793  0.743293
 5496.56  21.0573  1  2.51587  1.75876  0.742504
 5497.31  21.0543  1.0  2.51591  1.75958  0.735152
 5498.06  21.0513  1  2.51601  1.76039  0.724207
 5498.81  21.0482  1.0  2.51609  1.76122  0.71329
 5499.56  21.0452  1  2.51623  1.76209  0.704235
 5500.31  21.0422  1.0  2.51623  1.76284  0.697105
 5501.06  21.0392  1  2.51619  1.76361  0.690843
 5501.81  21.0362  1.0  2.5163  1.76443  0.685535
 5502.56  21.0332  1  2.51636  1.76531  0.681488
 5503.31  21.0302  1.0  2.5164  1.76607  0.679387
 5504.06  21.0272  1  2.52253  1.77113  0.679683
 5504.81  21.0242  1.0  2.52251  1.77186  0.678866
 5505.56  21.0212  1  2.52261  1.77272  0.677017
 5506.31  21.0182  1.0  2.52264  1.77351  0.673483
 5507.06  21.0152  1  2.52275  1.77434  0.668262
 5507.81  21.0122  1.0  2.52271  1.77512  0.661977
 5508.56  21.0092  1  2.52277  1.77596  0.656156
 5509.31  21.0062  1.0  2.52276  1.77674  0.652236
 5510.06  21.0032  1  2.52286  1.77756  0.651038
 5510.81  21.0002  1.0  2.52285  1.77832  0.652344
 5511.56  20.9972  1  2.52294  1.77917  0.655582
 5512.31  20.9943  1.0  2.52297  1.77996  0.660119
 5513.06  20.9913  1  2.52301  1.78079  0.664761
 5513.81  20.9883  1.0  2.52298  1.78153  0.669846
 5514.56  20.9853  1  2.523  1.78225  0.674082
 5534.81  20.9049  1.0  2.5272  1.80608  0.805911
 5564.81  20.787  1  2.53345  1.84126  0.69615
 5594.81  20.6704  1.0  2.53907  1.87597  0.961927
 5624.81  20.5552  1  2.54378  1.90994  0.873259
 5654.8  20.4412  1.0  2.54823  1.94371  1.07365
 5684.8  20.3286  1  2.55185  1.97675  1.10875
 5714.8  20.2172  1.0  2.55492  2.00927  1.20748
 5744.8  20.1071  1  2.55728  2.04115  1.29942
 5774.79  19.9981  1.0  2.55903  2.07233  1.33777
 5804.79  19.8904  1  2.55995  2.10267  1.4422
 5834.79  19.7839  1.0  2.55954  2.13176  1.53975
 5864.79  19.6785  1  2.55714  2.15885  1.61233
 5894.79  19.5743  1.0  2.54658  2.17882  1.68978
 5924.78  19.4711  1  2.48822  2.15674  1.7443
 5954.78  19.3691  1.0  2.60081  2.28359  1.92308
 5984.78  19.2682  1  2.57318  2.28779  1.9873
 6014.78  19.1683  1.0  2.56564  2.30933  2.08195
 6044.77  19.0695  1  2.56157  2.33357  2.17859
 6074.77  18.9718  1.0  2.55684  2.35684  2.27785
 6104.77  18.875  1  2.55288  2.38062  2.37409
 6134.77  18.7792  1.0  2.54906  2.40411  2.47138
 6164.76  18.6845  1  2.54423  2.42639  2.57576
 6194.76  18.5907  1.0  2.53918  2.44816  2.68211
 6224.76  18.4978  1  2.53409  2.46945  2.78879
 6254.76  18.4059  1.0  2.52857  2.49004  2.89542
 6284.75  18.3149  1  2.52278  2.51004  3.00516
 6314.75  18.2249  1.0  2.51657  2.5292  3.11746
 6344.75  18.1357  1  2.51528  2.55304  3.23907
 6374.75  18.0474  1.0  2.50822  2.57074  3.35252
 6404.74  17.96  1  2.50128  2.5881  3.46779
 6434.74  17.8734  1.0  2.49395  2.60473  3.58463
 6464.74  17.7877  1  2.47552  2.60923  3.68727
 6494.74  17.7028  1.0  2.47658  2.63395  3.8198
 6524.73  17.6188  1  2.46847  2.64858  3.93961
 6554.73  17.5355  1.0  2.45927  2.66173  4.05835
 6584.73  17.4531  1  2.4499  2.67415  4.17746
 6614.73  17.3714  1.0  2.43998  2.68572  4.2967
 6644.72  17.2905  1  2.43063  2.69745  4.41838
 6674.72  17.2103  1.0  2.42079  2.70816  4.53902
 6694.72  17.1573  1.0  2.41384  2.71475  4.6198

File: MEX1_29702_processed.xdi
# XDI/1.0
# Mono.d_spacing: 3.13897
# Reference.Element: Ti
# ROI.start_bin: nan
# ROI.end_bin: nan
# Element.symbol: None
# Element.edge: None
# Processing.version: spec_processing_library v0.3.5
# Column.1: energy
# Column.2: bragg
# Column.3: count_time seconds
# Column.4: i0
# Column.5: i1
# Column.6: i2
# Describe.Column.1: energy - MEX1ES01ZEB01:CALC_ENERGY_EV
# Describe.Column.2: bragg - MEX1ES01ZEB01:BRAGG_WITH_OFFSET
# Describe.Column.3: count_time - MEX1ES01ZEB01:GATE_TIME_SET
# Describe.Column.4: i0 - MEX1ES01DAQ01:ch1:S:MeanValue_RBV
# Describe.Column.5: i1 - MEX1ES01DAQ01:ch2:S:MeanValue_RBV
# Describe.Column.6: i2 - MEX1ES01DAQ01:ch3:S:MeanValue_RBV
# Samples: [417, 417, 417, 417, 417, 417]
# ///
# Ti foil
#
# xdi from default mda2xdi preset for mex1.
#--------
#  energy   bragg   count_time   i0   i1   i2
 4765.86  24.4809  1  2.14068  1.71326  0.770392
 4795.86  24.3178  1.0  2.16347  1.78079  0.812293
 4825.86  24.1569  1  2.18587  1.84975  0.859723
 4855.86  23.9983  1.0  2.20748  1.91937  0.910921
 4885.86  23.8417  1  2.22829  1.9903  0.969
 4915.85  23.6873  1.0  2.24882  2.06327  1.03671
 4945.85  23.5349  1  2.26884  2.13777  1.10931
 4946.6  23.5312  1.0  2.26928  2.13963  1.11098
 4947.35  23.5274  1  2.26959  2.14138  1.11255
 4948.1  23.5236  1.0  2.27006  2.14314  1.11419
 4948.85  23.5198  1  2.27043  2.14492  1.11575
 4949.6  23.516  1.0  2.27073  2.14664  1.11714
 4950.35  23.5123  1  2.2711  2.14839  1.11861
 4951.1  23.5085  1.0  2.27147  2.15015  1.11999
 4951.85  23.5047  1  2.27192  2.15193  1.12123
 4952.6  23.5009  1.0  2.27766  2.15886  1.12527
 4953.35  23.4972  1  2.27813  2.16099  1.12753
 4954.1  23.4934  1.0  2.27844  2.16251  1.128
 4954.85  23.4896  1  2.27882  2.16437  1.12899
 4955.6  23.4859  1.0  2.27917  2.16597  1.12928
 4956.35  23.4821  1  2.2795  2.1678  1.13013
 4957.1  23.4783  1.0  2.28002  2.16991  1.13142
 4957.85  23.4746  1  2.28035  2.17143  1.13054
 4958.6  23.4708  1.0  2.28058  2.17305  1.12989
 4959.35  23.467  1  2.28101  2.17484  1.12846
 4960.1  23.4633  1.0  2.28137  2.17664  1.12597
 4960.85  23.4595  1  2.28177  2.17839  1.12161
 4961.6  23.4558  1.0  2.28202  2.18007  1.11377
 4962.35  23.452  1  2.28245  2.1819  1.09884
 4963.1  23.4483  1.0  2.28276  2.18363  1.06441
 4963.85  23.4445  1  2.28317  2.18542  0.954451
 4964.6  23.4407  1.0  2.28345  2.18714  0.664817
 4965.35  23.437  1  2.28386  2.18894  0.560815
 4966.1  23.4332  1.0  2.28411  2.19062  0.681997
 4966.85  23.4295  1  2.28434  2.1923  0.734538
 4967.6  23.4257  1.0  2.28465  2.19395  0.700199
 4968.35  23.422  1  2.28501  2.19569  0.643122
 4969.1  23.4183  1.0  2.28546  2.19753  0.604656
 4969.85  23.4145  1  2.28587  2.19938  0.587967
 4970.6  23.4108  1.0  2.28623  2.20111  0.574186
 4971.35  23.407  1  2.28664  2.20305  0.538741
 4972.1  23.4033  1.0  2.28708  2.2052  0.488878
 4972.85  23.3995  1  2.28726  2.20645  0.441138
 4973.6  23.3958  1.0  2.28751  2.20815  0.402975
 4974.35  23.3921  1  2.2877  2.20974  0.370544
 4975.1  23.3883  1.0  2.28807  2.2115  0.341021
 4975.85  23.3846  1  2.28842  2.21332  0.314671
 4976.6  23.3809  1.0  2.28861  2.21491  0.293521
 4977.35  23.3771  1  2.28889  2.21661  0.276445
 4978.1  23.3734  1.0  2.28923  2.21837  0.262256
 4978.85  23.3697  1  2.28939  2.21998  0.250813
 4979.6  23.3659  1.0  2.28973  2.22162  0.24214
 4980.35  23.3622  1  2.28991  2.2233  0.236461
 4981.1  23.3585  1.0  2.29022  2.22501  0.233614
 4981.85  23.3548  1  2.29051  2.22677  0.232437
 4982.6  23.351  1.0  2.29069  2.22835  0.232556
 4983.35  23.3473  1  2.29113  2.23023  0.234338
 4984.1  23.3436  1.0  2.2913  2.23178  0.23819
 4984.85  23.3399  1  2.29162  2.23358  0.243136
 4985.6  23.3362  1.0  2.2919  2.23529  0.247906
 4986.35  23.3324  1  2.29779  2.24241  0.251797
 4987.1  23.3287  1.0  2.29818  2.24424  0.253785
 4987.85  23.325  1  2.2985  2.24601  0.25486
 4988.6  23.3213  1.0  2.29888  2.24772  0.25602
 4989.35  23.3176  1  2.29913  2.24945  0.25742
 4990.1  23.3139  1.0  2.2995  2.25124  0.258764
 4990.85  23.3102  1  2.29989  2.25307  0.260195
 4991.6  23.3064  1.0  2.30024  2.2548  0.261308
 4992.35  23.3027  1  2.30056  2.25656  0.261865
 4993.1  23.299  1.0  2.30096  2.25844  0.261392
 4993.85  23.2953  1  2.30124  2.26007  0.259574
 4994.6  23.2916  1.0  2.30171  2.26199  0.256334
 4995.35  23.2879  1  2.30207  2.26371  0.251603
 4996.1  23.2842  1.0  2.30232  2.26551  0.245875
 4996.85  23.2805  1  2.30281  2.26735  0.239763
 4997.6  23.2768  1.0  2.30317  2.26915  0.234462
 4998.35  23.2731  1  2.30348  2.27088  0.230417
 4999.1  23.2694  1.0  2.30384  2.27266  0.22779
 4999.85  23.2657  1  2.3042  2.27447  0.226461
 5000.6  23.262  1.0  2.30445  2.27614  0.226039
 5001.35  23.2583  1  2.30484  2.27802  0.225731
 5002.1  23.2546  1.0  2.30505  2.27969  0.225336
 5002.85  23.251  1  2.30545  2.28149  0.225096
 5003.6  23.2473  1.0  2.30588  2.28331  0.225719
 5004.35  23.2436  1  2.30611  2.285  0.227483
 5005.1  23.2399  1.0  2.30653  2.28682  0.230875
 5005.85  23.2362  1  2.30687  2.28869  0.235752
 5006.6  23.2325  1.0  2.30716  2.29036  0.241693
 5007.35  23.2288  1  2.30756  2.29223  0.248144
 5008.1  23.2252  1.0  2.30785  2.29392  0.254385
 5008.85  23.2215  1  2.30816  2.29563  0.26001
 5009.6  23.2178  1.0  2.30851  2.29744  0.264489
 5010.35  23.2141  1  2.30881  2.29924  0.268081
 5011.1  23.2104  1.0  2.30908  2.30099  0.270935
 5011.85  23.2068  1  2.30947  2.30281  0.273477
 5012.6  23.2031  1.0  2.30983  2.30462  0.276137
 5013.35  23.1994  1  2.3102  2.30637  0.278985
 5014.1  23.1957  1.0  2.31042  2.30813  0.281935
 5014.85  23.1921  1  2.31078  2.30996  0.284964
 5015.6  23.1884  1.0  2.31112  2.31174  0.287935
 5035.85  23.0897  1  2.32296  2.36275  0.26164
 5065.84  22.9452  1.0  2.3396  2.43806  0.338269
 5095.84  22.8025  1  2.35556  2.51363  0.310971
 5125.84  22.6616  1.0  2.37105  2.5899  0.393672
 5155.84  22.5225  1  2.39178  2.6731  0.39769
 5185.84  22.3851  1.0  2.40591  2.74978  0.475754
 5215.83  22.2494  1  2.41946  2.82638  0.495459
 5245.83  22.1155  1.0  2.43225  2.90252  0.550518
 5275.83  21.9831  1  2.44618  2.98067  0.601005
 5305.83  21.8524  1.0  2.45311  3.05058  0.640868
 5335.83  21.7233  1  2.46382  3.12545  0.698329
 5365.82  21.5957  1.0  2.47369  3.1996  0.753656
 5395.82  21.4697  1  2.48396  3.27467  0.805225
 5425.82  21.3452  1.0  2.48897  3.343  0.866677
 5455.82  21.2221  1  2.4963  3.41455  0.930351
 5485.82  21.1005  1.0  2.50384  3.48654  0.991802
 5515.81  20.9803  1  2.51131  3.55861  1.05803
 5545.81  20.8615  1.0  2.51651  3.62744  1.12826
 5575.81  20.7441  1  2.52105  3.69505  1.19845
 5605.81  20.628  1.0  2.52546  3.76242  1.26999
 5635.81  20.5132  1  2.52902  3.82843  1.34641
 5665.8  20.3998  1.0  2.53188  3.89317  1.42595
 5695.8  20.2876  1  2.53399  3.95634  1.50692
 5725.8  20.1767  1.0  2.5362  4.01971  1.59036
 5755.8  20.067  1  2.53784  4.08181  1.67773
 5785.79  19.9585  1.0  2.53779  4.14085  1.7671
 5815.79  19.8512  1  2.53681  4.19792  1.85798
 5845.79  19.7451  1.0  2.53448  4.25237  1.9501
 5875.79  19.6402  1  2.52894  4.30064  2.04231
 5905.78  19.5363  1.0  2.48224  4.27732  2.10191
 5935.78  19.4336  1  2.56402  4.47625  2.27507
 5965.78  19.332  1.0  2.55187  4.51191  2.36993
 5995.78  19.2315  1  2.53934  4.54589  2.46582
 6025.78  19.132  1.0  2.53258  4.58931  2.5692
 6055.77  19.0336  1  2.52741  4.63502  2.67682
 6085.77  18.9362  1.0  2.52196  4.67958  2.78586
 6115.77  18.8398  1  2.51712  4.72451  2.89778
 6145.76  18.7444  1.0  2.51134  4.76691  3.01061
 6175.76  18.65  1  2.50472  4.80718  3.1244
 6195.76  18.5876  1  2.50082  4.83467  3.20192

File: MEX1_29703_processed.xdi
# XDI/1.0
# Mono.d_spacing: 3.13897
# Reference.Element: Sn
# ROI.start_bin: nan
# ROI.end_bin: nan
# Element.symbol: None
# Element.edge: None
# Processing.version: spec_processing_library v0.3.5
# Column.1: energy
# Column.2: bragg
# Column.3: count_time seconds
# Column.4: i0
# Column.5: i1
# Column.6: i2
# Describe.Column.1: energy - MEX1ES01ZEB01:CALC_ENERGY_EV
# Describe.Column.2: bragg - MEX1ES01ZEB01:BRAGG_WITH_OFFSET
# Describe.Column.3: count_time - MEX1ES01ZEB01:GATE_TIME_SET
# Describe.Column.4: i0 - MEX1ES01DAQ01:ch1:S:MeanValue_RBV
# Describe.Column.5: i1 - MEX1ES01DAQ01:ch2:S:MeanValue_RBV
# Describe.Column.6: i2 - MEX1ES01DAQ01:ch3:S:MeanValue_RBV
# Samples: [417, 417, 417, 417, 417, 417]
# ///
# Sn foil
#
# xdi from default mda2xdi preset for mex1.
#--------
#  energy   bragg   count_time   i0   i1   i2
 3728.92  31.98  1.0  2.02881  0.258192  2.13529
 3758.92  31.6949  1  2.10934  0.272751  2.12056
 3788.92  31.4152  1.0  2.18453  0.28875  2.11027
 3818.92  31.1407  1  2.2647  0.307748  2.1205
 3848.92  30.8713  1.0  2.33127  0.326349  2.11843
 3878.92  30.6067  1  2.40842  0.347568  2.11795
 3908.91  30.347  1.0  2.49007  0.370868  2.11716
 3909.66  30.3405  1  2.49219  0.371698  2.12147
 3910.41  30.3341  1.0  2.49392  0.372394  2.12223
 3911.16  30.3277  1  2.49561  0.372859  2.12145
 3911.91  30.3212  1.0  2.49717  0.373363  2.12013
 3912.66  30.3148  1  2.49896  0.373971  2.12005
 3913.41  30.3084  1.0  2.50047  0.374523  2.12027
 3914.16  30.302  1  2.50203  0.374628  2.11104
 3914.91  30.2956  1.0  2.50391  0.375639  2.11926
 3915.66  30.2892  1  2.50547  0.376159  2.11841
 3916.41  30.2828  1.0  2.50706  0.376667  2.11778
 3917.16  30.2763  1  2.50858  0.377209  2.11712
 3917.91  30.2699  1.0  2.51022  0.377704  2.11568
 3918.66  30.2635  1  2.51192  0.378313  2.11499
 3919.41  30.2572  1.0  2.5135  0.378819  2.11445
 3920.16  30.2508  1  2.51508  0.379334  2.11311
 3920.91  30.2444  1.0  2.51665  0.37986  2.1125
 3921.66  30.238  1  2.51829  0.380361  2.1112
 3922.41  30.2316  1.0  2.51937  0.379935  2.09309
 3923.16  30.2252  1  2.5214  0.381381  2.10787
 3923.91  30.2188  1.0  2.52325  0.382257  2.11235
 3924.66  30.2124  1  2.52398  0.381215  2.08492
 3925.41  30.2061  1.0  2.52647  0.383274  2.10893
 3926.16  30.1997  1  2.52805  0.383832  2.10732
 3926.91  30.1933  1.0  2.52961  0.384388  2.10543
 3927.66  30.187  1  2.53117  0.384927  2.10246
 3928.41  30.1806  1.0  2.53269  0.385467  2.09869
 3929.16  30.1742  1  2.53437  0.386021  2.09453
 3929.91  30.1679  1.0  2.5359  0.38658  2.09138
 3930.66  30.1615  1  2.5375  0.387166  2.08889
 3931.41  30.1552  1.0  2.53899  0.387704  2.0858
 3932.16  30.1488  1  2.54663  0.389127  2.08713
 3932.91  30.1425  1.0  2.54823  0.389673  2.08504
 3933.66  30.1362  1  2.54999  0.390257  2.08313
 3934.41  30.1298  1.0  2.55149  0.390816  2.08121
 3935.16  30.1235  1  2.55309  0.391371  2.0779
 3935.91  30.1171  1.0  2.55464  0.391941  2.07526
 3936.66  30.1108  1  2.55616  0.392514  2.07253
 3937.41  30.1045  1.0  2.55795  0.393087  2.07041
 3938.16  30.0982  1  2.55963  0.393652  2.06796
 3938.91  30.0918  1.0  2.56109  0.394216  2.06602
 3939.66  30.0855  1  2.56272  0.394749  2.0631
 3940.41  30.0792  1.0  2.5645  0.395373  2.06285
 3941.16  30.0729  1  2.56608  0.395934  2.06155
 3941.91  30.0666  1.0  2.56781  0.396499  2.06061
 3942.66  30.0603  1  2.56943  0.397027  2.05854
 3943.41  30.054  1.0  2.57099  0.397292  2.05247
 3944.16  30.0476  1  2.57308  0.398564  2.06308
 3944.91  30.0413  1.0  2.57463  0.399042  2.06133
 3945.66  30.035  1  2.5763  0.399536  2.05807
 3946.41  30.0288  1.0  2.57784  0.399977  2.05423
 3947.16  30.0225  1  2.57919  0.400111  2.04599
 3947.91  30.0162  1.0  2.58154  0.401734  2.06202
 3948.66  30.0099  1  2.5835  0.402945  2.07225
 3949.41  30.0036  1.0  2.5849  0.40297  2.06075
 3950.16  29.9973  1  2.58652  0.403402  2.05752
 3950.91  29.991  1.0  2.58806  0.403824  2.05436
 3951.66  29.9848  1  2.58943  0.403817  2.04302
 3952.41  29.9785  1.0  2.59188  0.405653  2.06273
 3953.16  29.9722  1  2.59345  0.405949  2.05744
 3953.91  29.966  1.0  2.59504  0.406469  2.0548
 3954.66  29.9597  1  2.5968  0.40708  2.05319
 3955.41  29.9534  1.0  2.59844  0.407652  2.05198
 3956.16  29.9472  1  2.60024  0.408241  2.05038
 3956.91  29.9409  1.0  2.60194  0.408837  2.04934
 3957.66  29.9347  1  2.60375  0.409436  2.04813
 3958.41  29.9284  1.0  2.60553  0.410072  2.04741
 3959.16  29.9222  1  2.60738  0.410666  2.04648
 3959.91  29.9159  1.0  2.60906  0.411285  2.04517
 3960.66  29.9097  1  2.61078  0.411907  2.04474
 3961.41  29.9034  1.0  2.61258  0.412498  2.04417
 3962.16  29.8972  1  2.61439  0.413128  2.04297
 3962.91  29.891  1.0  2.61611  0.413731  2.04243
 3963.66  29.8847  1  2.61778  0.414339  2.04141
 3964.41  29.8785  1.0  2.62221  0.415349  2.04191
 3965.16  29.8723  1  2.62748  0.416482  2.04244
 3965.91  29.8661  1.0  2.62922  0.417124  2.04182
 3966.66  29.8598  1  2.63084  0.417756  2.04059
 3967.41  29.8536  1.0  2.63244  0.418309  2.03989
 3968.16  29.8474  1  2.63429  0.418952  2.03888
 3968.91  29.8412  1.0  2.63579  0.419535  2.03842
 3969.66  29.835  1  2.63748  0.420178  2.03716
 3970.41  29.8288  1.0  2.63907  0.420772  2.03663
 3971.16  29.8226  1  2.64061  0.421404  2.03573
 3971.91  29.8164  1.0  2.64243  0.422017  2.03412
 3972.66  29.8102  1  2.64403  0.422609  2.03366
 3973.41  29.804  1.0  2.6457  0.423263  2.03243
 3974.16  29.7978  1  2.64732  0.423874  2.03157
 3974.91  29.7916  1.0  2.64831  0.423439  2.01242
 3975.66  29.7854  1  2.65056  0.425081  2.02968
 3976.41  29.7792  1.0  2.65227  0.425701  2.02879
 3977.16  29.773  1  2.65384  0.426342  2.02757
 3977.91  29.7669  1.0  2.65551  0.426969  2.02664
 3978.66  29.7607  1  2.6571  0.427567  2.02579
 3998.91  29.5949  1.0  2.70644  0.445367  1.99818
 4028.91  29.3529  1  2.77364  0.472876  1.95817
 4058.91  29.115  1.0  2.84358  0.501387  1.90571
 4088.9  28.8812  1  2.91345  0.531841  1.84942
 4118.9  28.6513  1.0  2.97755  0.562661  1.77907
 4148.9  28.4252  1  3.04331  0.596054  1.71763
 4178.9  28.2028  1.0  3.10921  0.630711  1.61203
 4208.9  27.984  1  3.16381  0.664977  1.52443
 4238.9  27.7688  1.0  3.24375  0.706834  1.45347
 4268.89  27.557  1  3.2992  0.745107  1.36418
 4298.89  27.3485  1.0  3.36041  0.787229  1.29326
 4328.89  27.1434  1  3.41811  0.830031  1.21109
 4358.89  26.9414  1.0  3.4766  0.875885  1.15014
 4388.89  26.7425  1  3.53195  0.922656  1.0872
 4418.88  26.5467  1.0  3.58368  0.969758  1.01022
 4448.88  26.3539  1  3.63616  1.01951  0.949509
 4478.88  26.1639  1.0  3.68987  1.07188  0.864587
 4508.88  25.9768  1  3.7407  1.12529  0.815373
 4538.88  25.7924  1.0  3.78987  1.18009  0.773791
 4568.88  25.6108  1  3.83422  1.23433  0.715463
 4598.87  25.4318  1.0  3.87902  1.29095  0.67516
 4628.87  25.2553  1  3.92697  1.34968  0.626943
 4658.87  25.0814  1.0  3.976  1.41208  0.62086
 4688.87  24.9099  1  4.01749  1.47227  0.592297
 4718.87  24.7409  1.0  4.0548  1.53236  0.568758
 4748.87  24.5743  1  4.09158  1.59367  0.551553
 4778.86  24.4099  1.0  4.13272  1.65818  0.544497
 4808.86  24.2478  1  4.16536  1.72065  0.545145
 4838.86  24.0879  1.0  4.20122  1.78625  0.565851
 4868.86  23.9302  1  4.23446  1.85206  0.598013
 4898.86  23.7746  1.0  4.2661  1.91839  0.641659
 4928.85  23.621  1  4.29172  1.98314  0.695241
 4958.85  23.4695  1.0  4.31989  2.0502  0.761836
 4988.85  23.3201  1  4.34353  2.11596  0.837955
 5018.85  23.1725  1.0  4.37153  2.18457  0.92171
 5048.85  23.0269  1  4.39333  2.25087  1.01043
 5078.84  22.8831  1.0  4.41272  2.31635  1.10511
 5108.84  22.7412  1  4.43063  2.38167  1.20875
 5138.84  22.6011  1.0  4.44964  2.44805  1.32154
 5158.84  22.5086  1.0  4.46315  2.49299  1.39951